dateTime_UTC,ax,ay,az,gx,gy,gz
1999-01-02 04:00:02.4324,-4.6712,0.2059,-9.1096,4.54,11.94,-12.6
1999-01-02 04:00:02.5014,-4.53,0.3028,-9.5225,14.81,22.91,9.77
1999-01-02 04:00:02.5704,-3.8945,0.6858,-8.5082,-1.83,15.42,0.31
1999-01-02 04:00:02.6394,-3.1129,0.8964,-7.9852,-0.7,16.23,-4.72
1999-01-02 04:00:02.7084,-2.2476,1.2842,-5.8614,-19.5,38.16,-19.73
1999-01-02 04:00:02.7774,-2.4672,0.9491,-5.2349,-2.17,52.34,-22.46
1999-01-02 04:00:02.8464,-3.326,0.9323,-10.4345,33.55,-3.35,1.25
1999-01-02 04:00:02.9154,-3.7472,0.6553,-9.3717,30.2,21.96,-0.25
1999-01-02 04:00:02.9844,-3.1572,-0.0814,-13.0017,15.44,53.79,1.98
1999-01-02 04:00:03.0534,-2.7305,-0.6439,-10.748,10.78,27.93,-5.65
1999-01-02 04:00:03.1224,-2.5522,-0.842,-11.3716,13.37,27.66,-11.99
1999-01-02 04:00:03.1914,-0.9987,-1.7228,-10.6631,-32.42,74.33,-15.76
1999-01-02 04:00:03.2603,-2.1585,-0.1059,-10.93,-93.1,-118.47,-13.2
1999-01-02 04:00:03.3293,-3.8645,0.3866,-10.5494,-47.16,-13.31,6.99
1999-01-02 04:00:03.3983,-4.2822,1.0364,-9.1994,-28.81,-8.24,12.14
1999-01-02 04:00:03.4673,-1.3392,1.8359,-9.2724,20.26,105.03,29.38
1999-01-02 04:00:03.5363,-1.952,1.2387,-10.3495,11.57,37.55,-13.26
1999-01-02 04:00:03.6053,-2.9172,0.3578,-10.2304,51.24,81.31,-20.4
1999-01-02 04:00:03.6743,-2.0166,-0.1454,-9.644,13.9,32.54,-0.98
1999-01-02 04:00:03.7433,-0.3507,-0.3656,-9.7894,2.24,19.13,4.92
1999-01-02 04:00:03.8123,-0.5344,0.0945,-10.2705,1.65,15.01,19.29
1999-01-02 04:00:03.8813,-0.596,0.2932,-9.869,8.98,9.17,18.45
1999-01-02 04:00:03.9503,-0.4153,-0.1574,-10.5931,9.21,13.34,9.76
1999-01-02 04:00:04.0193,0.5918,0.7013,-6.4305,-23.63,49.8,0.37
1999-01-02 04:00:04.0883,-0.1705,0.3955,-9.9001,-7.65,21.86,0.94
1999-01-02 04:00:04.1573,0.7779,0.4931,-9.9743,0.32,6.68,7.72
1999-01-02 04:00:04.2262,0.7989,-0.9251,-11.8294,12.63,2.25,18.59
1999-01-02 04:00:04.2952,0.6038,0.3267,-10.1867,10.37,0.51,6.36
1999-01-02 04:00:04.3642,0.8108,0.97,-9.8127,30.77,-11.6,-7.75
1999-01-02 04:00:04.4332,0.4715,-0.5122,-10.3136,8.47,-1.71,0.25
1999-01-02 04:00:04.5022,0.5242,-0.1741,-10.027,1.3,-2.5,5.99
1999-01-02 04:00:04.5712,-1.2513,-1.3183,-10.4991,5.27,0.54,3.26
1999-01-02 04:00:04.6402,-0.4039,-0.6977,-10.5045,3.48,-4.35,2.19
1999-01-02 04:00:04.7092,-0.3387,-0.5834,-10.2352,1.17,0.87,0.67
1999-01-02 04:00:04.7782,-0.2412,-0.5589,-10.082,0.37,2.69,0.49
1999-01-02 04:00:04.8472,-0.2555,-0.5667,-10.0958,0.18,1.98,0.56
1999-01-02 04:00:04.9162,-0.2513,-0.5834,-10.1083,0.0,2.34,0.6
1999-01-02 04:00:04.9852,-0.2483,-0.5763,-10.0814,-0.11,2.24,0.5
1999-01-02 04:00:05.0542,-0.234,-0.5817,-10.0862,0.0,2.13,0.37
1999-01-02 04:00:05.1232,-0.2519,-0.5709,-10.1,-0.03,2.12,0.64
1999-01-02 04:00:05.1922,-0.2352,-0.5781,-10.088,0.23,2.16,0.7
1999-01-02 04:00:05.2611,-0.237,-0.5805,-10.0814,0.18,2.24,0.64
1999-01-02 04:00:05.3301,-0.2418,-0.5769,-10.0976,-0.02,2.06,0.64
1999-01-02 04:00:05.3991,-0.234,-0.5757,-10.0772,0.04,2.27,0.84
1999-01-02 04:00:05.4681,-0.2376,-0.5781,-10.0844,0.22,2.21,0.81
1999-01-02 04:00:05.5371,-0.2442,-0.5739,-10.091,0.04,2.23,0.53
1999-01-02 04:00:05.6061,-0.231,-0.5834,-10.0688,-0.2,2.35,0.66
1999-01-02 04:00:05.6751,-0.2232,-0.584,-10.073,0.05,2.37,0.55
1999-01-02 04:00:05.7441,-0.2394,-0.5673,-10.1006,0.03,2.14,0.6
1999-01-02 04:00:05.8131,-0.237,-0.5727,-10.0575,-0.18,2.34,0.7
1999-01-02 04:00:05.8821,-0.2388,-0.5829,-10.07,0.11,2.08,0.56
1999-01-02 04:00:05.9511,-0.2447,-0.5649,-10.0988,0.22,2.15,0.64
1999-01-02 04:00:06.0201,-0.2418,-0.5745,-10.0688,0.25,2.08,0.6
1999-01-02 04:00:06.0891,-0.2406,-0.5697,-10.0928,0.25,2.41,0.68
1999-01-02 04:00:06.1581,-0.2447,-0.5739,-10.0916,0.19,2.29,0.78
1999-01-02 04:00:06.2271,-0.2346,-0.5799,-10.0593,0.22,2.25,0.61
1999-01-02 04:00:06.2960,-0.237,-0.5769,-10.0928,0.27,2.2,0.51
1999-01-02 04:00:06.3650,-0.2358,-0.5739,-10.082,0.38,2.28,0.44
1999-01-02 04:00:06.4340,-0.2394,-0.5793,-10.0712,0.2,2.21,0.73
1999-01-02 04:00:06.5030,-0.2346,-0.5727,-10.0904,0.07,2.4,0.79
1999-01-02 04:00:06.5720,-0.228,-0.5745,-10.0772,0.07,2.26,0.74
1999-01-02 04:00:06.6410,-0.2298,-0.5733,-10.0563,-0.07,2.41,0.81
1999-01-02 04:00:06.7100,-0.2418,-0.5721,-10.097,0.13,2.2,0.75
1999-01-02 04:00:06.7790,-0.2322,-0.5799,-10.0706,0.19,2.35,0.74
1999-01-02 04:00:06.8480,-0.2328,-0.5834,-10.0665,0.37,2.07,0.51
1999-01-02 04:00:06.9170,-0.2352,-0.5787,-10.088,0.35,2.23,0.79
1999-01-02 04:00:06.9860,-0.2477,-0.5823,-10.1095,0.25,2.29,0.74
1999-01-02 04:00:07.0550,-0.2328,-0.5697,-10.0694,0.08,2.3,0.8
1999-01-02 04:00:07.1240,-0.2244,-0.5751,-10.0838,0.11,2.14,0.62
1999-01-02 04:00:07.1930,-0.2388,-0.5805,-10.0671,0.06,2.35,0.5
1999-01-02 04:00:07.2619,-0.2274,-0.5673,-10.0874,0.21,2.27,0.56
1999-01-02 04:00:07.3309,-0.2316,-0.5721,-10.0916,0.35,2.22,0.52
1999-01-02 04:00:07.3999,-0.2286,-0.5769,-10.0623,0.1,2.14,0.69
1999-01-02 04:00:07.4689,-0.2262,-0.5775,-10.076,0.13,2.01,0.72
1999-01-02 04:00:07.5379,-0.2316,-0.5709,-10.0694,0.13,2.26,0.88
1999-01-02 04:00:07.6069,-0.2304,-0.5673,-10.085,-0.12,2.4,0.7
1999-01-02 04:00:07.6759,-0.2376,-0.5745,-10.0928,0.2,2.4,0.58
1999-01-02 04:00:07.7449,-0.2304,-0.5649,-10.0814,0.17,2.22,0.57
1999-01-02 04:00:07.8139,-0.2328,-0.5775,-10.0509,0.09,2.24,0.6
1999-01-02 04:00:07.8829,-0.2286,-0.5751,-10.085,0.25,2.38,0.6
1999-01-02 04:00:07.9519,-0.2304,-0.5667,-10.0838,-0.06,2.28,0.46
1999-01-02 04:00:08.0209,-0.237,-0.5739,-10.0641,0.05,2.17,0.66
1999-01-02 04:00:08.0899,-0.2298,-0.5811,-10.0844,0.14,2.13,0.66
1999-01-02 04:00:08.1589,-0.231,-0.5673,-10.0449,0.2,2.18,0.69
1999-01-02 04:00:08.2279,-0.2208,-0.5667,-10.0922,0.21,2.13,0.58
1999-01-02 04:00:08.2968,-0.2471,-0.5613,-10.0682,0.04,2.21,0.57
1999-01-02 04:00:08.3658,-0.2298,-0.5763,-10.0617,-0.15,2.26,0.8
1999-01-02 04:00:08.4348,-0.2322,-0.5799,-10.0964,-0.04,2.28,0.74
1999-01-02 04:00:08.5038,-0.2358,-0.5709,-10.1287,0.18,2.29,0.79
1999-01-02 04:00:08.5728,-0.2459,-0.5745,-10.1245,-0.08,2.4,0.79
1999-01-02 04:00:08.6418,-0.2286,-0.5751,-10.0623,0.15,2.18,0.66
1999-01-02 04:00:08.7108,-0.2172,-0.5607,-10.0838,0.32,1.98,0.62
1999-01-02 04:00:08.7798,-0.1604,-0.5715,-10.0294,0.07,1.91,0.57
1999-01-02 04:00:08.8488,-0.2172,-0.5661,-10.0635,0.4,2.29,0.6
1999-01-02 04:00:08.9178,-0.3519,-0.675,-10.1137,0.86,1.33,0.38
1999-01-02 04:00:08.9868,-1.3877,-0.4279,-10.1155,1.13,0.13,-0.04
1999-01-02 04:00:09.0558,-0.538,-0.5523,-10.0868,0.6,1.75,-0.69
1999-01-02 04:00:09.1248,-0.2615,-0.6098,-10.3106,0.04,2.94,-5.3
1999-01-02 04:00:09.1938,-0.0802,-0.5775,-10.0551,-1.4,3.95,-3.61
1999-01-02 04:00:09.2628,-1.5888,-0.5559,-10.9665,7.38,3.84,-10.54
1999-01-02 04:00:09.3317,-0.1448,-0.6822,-10.1502,12.98,7.01,-9.15
1999-01-02 04:00:09.4007,-0.1287,-0.7528,-9.9964,9.38,9.48,-1.52
1999-01-02 04:00:09.4697,-0.3381,-0.9754,-10.1628,7.15,1.34,-1.47
1999-01-02 04:00:09.5387,-0.2501,-1.0125,-10.4991,-5.8,6.71,-9.2
1999-01-02 04:00:09.6077,0.8785,-0.8533,-10.3136,-8.5,-14.42,-0.08
1999-01-02 04:00:09.6767,-0.5858,-0.5481,-10.3687,-2.46,-7.32,3.66
1999-01-02 04:00:09.7457,-0.003,-0.6421,-10.0156,-6.92,-6.16,1.9
1999-01-02 04:00:09.8147,-1.1645,-0.6397,-10.5512,-2.32,17.05,11.01
1999-01-02 04:00:09.8837,-0.6277,-0.2489,-10.5769,-3.4,23.7,5.52
1999-01-02 04:00:09.9527,-0.5021,-0.359,-9.7493,-1.88,16.49,4.73
1999-01-02 04:00:10.0217,-0.3447,-0.1167,-10.143,-2.49,7.47,1.9
1999-01-02 04:00:10.0907,0.0215,-0.0706,-10.0718,-4.86,10.32,1.65
1999-01-02 04:00:10.1597,0.0928,-0.1951,-9.8911,-2.25,10.27,-1.54
1999-01-02 04:00:10.2287,0.2178,0.1406,-9.4214,-11.15,-2.52,-2.14
1999-01-02 04:00:10.2977,-0.1741,0.2477,-9.72,-7.22,-1.9,0.52
1999-01-02 04:00:10.3666,-0.2376,0.3321,-9.8193,-5.74,8.18,-4.06
1999-01-02 04:00:10.4356,-0.0904,0.3734,-10.0323,-2.33,-6.45,3.96
1999-01-02 04:00:10.5046,-0.5721,0.3321,-9.8229,-5.47,-4.66,2.19
1999-01-02 04:00:10.5736,0.0168,0.1442,-9.9743,-2.0,2.04,0.37
1999-01-02 04:00:10.6426,-0.0048,0.1131,-10.012,1.56,-0.8,0.33
1999-01-02 04:00:10.7116,-0.0102,0.1293,-10.0252,0.3,-1.13,1.1
1999-01-02 04:00:10.7806,-0.2771,0.234,-10.2077,2.33,-2.32,-0.46
1999-01-02 04:00:10.8496,-0.222,0.2394,-9.9803,1.18,0.51,-0.09
1999-01-02 04:00:10.9186,0.0186,0.0521,-10.3028,1.15,11.45,0.04
1999-01-02 04:00:10.9876,-0.4757,0.3878,-9.9486,-0.14,-0.38,3.26
1999-01-02 04:00:11.0566,-0.2711,-0.0383,-10.0515,1.01,5.5,1.33
1999-01-02 04:00:11.1256,-0.2202,0.1137,-9.9228,-1.03,-4.2,1.31
1999-01-02 04:00:11.1946,-0.5846,0.0951,-9.7547,2.9,0.52,1.62
1999-01-02 04:00:11.2636,0.1903,0.164,-10.2179,1.73,4.01,2.38
1999-01-02 04:00:11.3325,-0.152,0.0473,-10.2759,-0.93,0.86,2.49
1999-01-02 04:00:11.4015,-0.368,0.1131,-9.9653,0.11,2.23,0.21
1999-01-02 04:00:11.4705,-0.2501,0.0257,-10.0509,-1.37,7.04,0.44
1999-01-02 04:00:11.5395,-0.1771,0.1562,-10.219,0.32,6.3,0.93
1999-01-02 04:00:11.6085,0.0126,0.1406,-10.0952,-0.59,-1.59,-1.74
1999-01-02 04:00:11.6775,-0.3184,0.2878,-9.8121,-1.48,-0.61,0.85
1999-01-02 04:00:11.7465,-0.1394,0.1035,-10.0724,1.47,-0.13,1.26
1999-01-02 04:00:11.8155,-0.058,0.1771,-10.0234,-1.38,1.72,0.52
1999-01-02 04:00:11.8845,-0.5164,0.1789,-10.4596,1.94,6.86,0.04
1999-01-02 04:00:11.9535,-0.1771,0.2082,-9.9946,0.08,1.65,-1.68
1999-01-02 04:00:12.0225,-0.6301,0.2208,-9.9073,-1.0,1.37,0.27
1999-01-02 04:00:12.0915,-0.3201,0.2118,-10.1574,0.39,3.52,0.52
1999-01-02 04:00:12.1605,-0.3369,0.2256,-10.3052,0.02,3.07,2.76
1999-01-02 04:00:12.2295,-0.2854,0.161,-10.1311,0.38,7.88,-0.8
1999-01-02 04:00:12.2985,-0.1699,0.1448,-9.9049,-1.32,1.69,1.17
1999-01-02 04:00:12.3674,-0.4955,0.2298,-10.0742,-1.81,3.75,1.75
1999-01-02 04:00:12.4364,-0.0335,0.2609,-10.0258,-0.29,4.78,-0.67
1999-01-02 04:00:12.5054,-0.2328,0.1981,-10.0718,0.83,1.08,2.48
1999-01-02 04:00:12.5744,-0.2477,0.2447,-10.0635,-0.13,3.28,0.72
1999-01-02 04:00:12.6434,-0.2388,0.1723,-10.0252,2.14,4.31,0.19
1999-01-02 04:00:12.7124,0.4255,0.2615,-9.9719,1.94,2.95,-0.48
1999-01-02 04:00:12.7814,-0.2178,0.1382,-10.0832,0.55,2.98,0.33
1999-01-02 04:00:12.8504,-0.4931,0.2645,-10.0718,1.22,4.21,-1.02
1999-01-02 04:00:12.9194,0.2088,0.2196,-9.9994,1.45,6.64,-0.5
1999-01-02 04:00:12.9884,-0.2705,0.1831,-10.1179,-1.07,-3.46,3.08
1999-01-02 04:00:13.0574,-0.4021,0.1819,-10.1915,-0.23,3.47,0.19
1999-01-02 04:00:13.1264,0.2639,0.085,-9.9384,0.04,3.28,-0.87
1999-01-02 04:00:13.1954,-0.2346,0.1867,-10.5236,-1.63,-3.48,1.69
1999-01-02 04:00:13.2644,-0.2364,0.319,-11.3991,-0.57,0.76,-1.42
1999-01-02 04:00:13.3334,-0.4686,0.3178,-12.8634,-10.23,-0.2,3.71
1999-01-02 04:00:13.4023,0.5781,-0.0102,-8.2856,-10.77,1.75,2.19
1999-01-02 04:00:13.4713,0.073,0.2908,-5.7615,-18.41,11.92,-1.91
1999-01-02 04:00:13.5403,-0.4985,0.2047,-5.5323,-0.19,2.97,-1.08
1999-01-02 04:00:13.6093,-0.3058,0.012,-11.1873,25.58,-1.93,-1.58
1999-01-02 04:00:13.6783,-0.1053,0.5751,-14.5994,18.94,-18.87,0.32
1999-01-02 04:00:13.7473,-0.4045,0.1646,-16.1738,-4.39,-5.1,2.18
1999-01-02 04:00:13.8163,-0.7031,0.009,-11.7905,-30.96,8.38,6.3
1999-01-02 04:00:13.8853,-0.7253,0.0126,-7.8075,-25.51,23.41,8.23
1999-01-02 04:00:13.9543,-0.1783,0.3979,-5.1206,-5.73,34.46,4.26
1999-01-02 04:00:14.0233,0.1233,0.4267,-5.8076,16.23,6.23,7.22
1999-01-02 04:00:14.0923,0.1975,0.3321,-8.9426,29.83,-6.59,-2.62
1999-01-02 04:00:14.1613,0.8898,0.0473,-12.5014,25.85,-24.28,1.95
1999-01-02 04:00:14.2303,0.0742,-0.7522,-16.172,6.68,-13.64,4.8
1999-01-02 04:00:14.2993,0.3285,-0.2232,-12.7019,-19.15,9.66,0.15
1999-01-02 04:00:14.3682,0.7953,-0.0144,-10.4105,-26.85,6.2,5.01
1999-01-02 04:00:14.4372,-1.0376,0.3321,-7.9379,-20.49,13.98,-0.47
1999-01-02 04:00:14.5062,0.2842,0.6146,-5.2145,-3.68,21.25,-5.56
1999-01-02 04:00:14.5752,0.313,0.0963,-7.1396,9.9,-5.52,2.25
1999-01-02 04:00:14.6442,-1.0364,0.4063,-9.9474,26.23,-27.76,4.53
1999-01-02 04:00:14.7132,0.0981,-0.158,-13.2781,20.44,-14.77,0.79
1999-01-02 04:00:14.7822,0.0126,-0.5332,-14.4025,5.91,-5.03,0.94
1999-01-02 04:00:14.8512,0.3243,0.3393,-12.4565,-16.51,10.52,0.95
1999-01-02 04:00:14.9202,-0.3267,0.0892,-10.2334,-22.69,22.74,0.32
1999-01-02 04:00:14.9892,0.0568,0.2597,-6.9834,-19.98,20.18,-0.32
1999-01-02 04:00:15.0582,0.0395,-0.0048,-5.1445,-4.94,15.16,-0.74
1999-01-02 04:00:15.1272,0.149,0.1987,-7.4017,11.08,-2.49,-3.4
1999-01-02 04:00:15.1962,-0.1843,0.4859,-11.0975,16.99,-20.89,-2.93
1999-01-02 04:00:15.2652,-0.21,-0.0186,-14.3313,7.97,-15.99,-5.99
1999-01-02 04:00:15.3342,-0.0353,0.1855,-13.5791,-5.52,-0.96,3.44
1999-01-02 04:00:15.4031,-0.0245,0.0413,-10.9557,-16.81,16.3,2.2
1999-01-02 04:00:15.4721,0.2609,0.4039,-8.7894,-15.53,32.51,-1.58
1999-01-02 04:00:15.5411,0.0742,0.5661,-7.0965,-8.36,17.03,1.38
1999-01-02 04:00:15.6101,0.2118,0.2202,-6.628,11.26,8.83,1.55
1999-01-02 04:00:15.6791,0.7205,0.2902,-8.5279,18.56,-13.85,-1.75
1999-01-02 04:00:15.7481,-0.301,-0.0281,-11.0963,19.14,-17.58,-5.45
1999-01-02 04:00:15.8171,-0.1741,0.0197,-13.0818,15.22,-20.36,1.24
1999-01-02 04:00:15.8861,0.2184,-0.3477,-14.6287,-3.71,-5.14,-1.47
1999-01-02 04:00:15.9551,0.1502,0.2035,-11.0455,-21.2,13.11,1.22
1999-01-02 04:00:16.0241,-0.3716,0.2388,-9.6452,-21.46,19.65,2.56
1999-01-02 04:00:16.0931,-0.137,0.6475,-7.0882,-15.93,19.15,-0.5
1999-01-02 04:00:16.1621,-0.0945,0.304,-6.8464,-1.3,10.32,-0.98
1999-01-02 04:00:16.2311,-0.0281,0.286,-7.7111,16.44,-8.66,-3.07
1999-01-02 04:00:16.3001,-0.1029,0.1909,-10.3752,21.42,-13.42,-4.4
1999-01-02 04:00:16.3691,-0.1861,0.3973,-13.3727,15.25,-20.06,-3.17
1999-01-02 04:00:16.4380,-0.2896,0.6074,-14.2643,-3.19,-1.69,-1.08
1999-01-02 04:00:16.5070,0.0832,0.3405,-11.1358,-11.25,14.38,3.93
1999-01-02 04:00:16.5760,-0.0676,0.1053,-9.2873,-13.87,20.7,0.66
1999-01-02 04:00:16.6450,-0.2926,0.2328,-7.9146,-10.69,17.51,4.63
1999-01-02 04:00:16.7140,0.2645,0.4207,-6.8973,1.62,15.3,-2.24
1999-01-02 04:00:16.7830,0.0209,0.3573,-8.279,17.52,-5.56,0.6
1999-01-02 04:00:16.8520,0.1526,0.3806,-10.1149,14.04,-21.54,-0.06
1999-01-02 04:00:16.9210,-0.6445,-0.2495,-12.5989,12.27,-13.3,-3.94
1999-01-02 04:00:16.9900,0.1173,0.0102,-13.5971,-2.03,-0.88,0.54
1999-01-02 04:00:17.0590,-0.1831,-0.1089,-11.876,-16.79,6.68,2.91
1999-01-02 04:00:17.1280,-0.371,0.5906,-9.6924,-20.33,28.52,-5.84
1999-01-02 04:00:17.1970,0.2705,0.8743,-7.4939,-16.58,15.5,0.91
1999-01-02 04:00:17.2660,-0.1855,0.5775,-7.2019,0.73,2.2,2.1
1999-01-02 04:00:17.3350,-0.0377,0.2753,-7.2587,15.99,-7.14,-1.9
1999-01-02 04:00:17.4039,-0.1161,0.0072,-9.65,24.74,-16.38,-3.52
1999-01-02 04:00:17.4729,-0.1759,0.2256,-12.8006,17.71,-20.5,-4.02
1999-01-02 04:00:17.5419,-0.2723,-0.2124,-15.5928,8.62,-0.86,-1.43
1999-01-02 04:00:17.6109,0.0335,0.7654,-11.2399,-24.83,7.01,1.74
1999-01-02 04:00:17.6799,-0.2346,0.2148,-9.9061,-22.12,29.55,-0.83
1999-01-02 04:00:17.7489,-0.0024,0.5344,-7.2593,-19.9,18.33,-5.18
1999-01-02 04:00:17.8179,-0.4733,0.6648,-6.7207,-4.8,4.47,-2.21
1999-01-02 04:00:17.8869,-0.2615,0.687,-7.2497,14.26,1.72,-1.31
1999-01-02 04:00:17.9559,0.07,0.1711,-9.8738,24.29,-11.38,0.27
1999-01-02 04:00:18.0249,-0.4494,-0.1197,-11.0718,28.72,-28.34,0.18
1999-01-02 04:00:18.0939,-0.6301,0.1358,-14.3517,14.72,-14.69,0.16
1999-01-02 04:00:18.1629,-0.5158,0.3321,-12.7509,-10.82,2.73,3.35
1999-01-02 04:00:18.2319,-0.5475,0.0287,-10.7385,-18.11,16.15,5.17
1999-01-02 04:00:18.3009,-0.5063,0.4452,-8.2575,-17.57,18.94,6.45
1999-01-02 04:00:18.3699,0.0407,0.0557,-7.1055,-9.32,12.15,6.67
1999-01-02 04:00:18.4388,-0.2854,0.2304,-7.4305,4.87,1.18,0.49
1999-01-02 04:00:18.5078,-0.6523,0.155,-8.7374,16.49,-10.59,-1.97
1999-01-02 04:00:18.5768,-0.2974,-0.1526,-11.6887,20.24,-14.46,-2.19
1999-01-02 04:00:18.6458,-0.5128,0.286,-12.9233,18.82,-14.32,1.79
1999-01-02 04:00:18.7148,-0.6295,-0.3776,-13.8622,-5.09,4.69,0.3
1999-01-02 04:00:18.7838,-0.6708,0.1394,-10.4632,-18.58,9.37,2.62
1999-01-02 04:00:18.8528,-0.3884,0.1334,-9.5943,-15.6,14.84,3.75
1999-01-02 04:00:18.9218,-0.2884,0.3632,-7.7374,-15.99,18.87,-1.42
1999-01-02 04:00:18.9908,-0.687,0.5242,-6.8733,0.23,3.45,1.72
1999-01-02 04:00:19.0598,-0.5924,0.3824,-8.1402,14.17,-7.04,-1.22
1999-01-02 04:00:19.1288,-0.161,0.0604,-10.7983,20.82,-8.84,0.07
1999-01-02 04:00:19.1978,-0.4261,-0.2663,-12.1645,16.93,-10.15,-1.65
1999-01-02 04:00:19.2668,-0.5057,-0.0365,-13.08,3.98,-6.16,2.87
1999-01-02 04:00:19.3358,-0.7654,-0.0598,-12.1052,-12.74,8.01,0.98
1999-01-02 04:00:19.4048,-0.5404,0.2232,-9.9025,-17.23,11.96,7.47
1999-01-02 04:00:19.4737,-0.526,0.1711,-8.8547,-18.18,18.73,0.04
1999-01-02 04:00:19.5427,-0.0168,0.7223,-7.0391,-8.88,10.58,1.6
1999-01-02 04:00:19.6117,-0.0227,0.4398,-7.1827,9.31,-7.63,0.28
1999-01-02 04:00:19.6807,-1.0592,-0.1089,-10.3118,18.66,-8.22,-2.85
1999-01-02 04:00:19.7497,-0.3178,0.0341,-11.1101,20.03,-9.15,-1.45
1999-01-02 04:00:19.8187,-0.6714,0.0634,-13.9322,11.15,-5.1,0.21
1999-01-02 04:00:19.8877,-0.6086,0.1735,-12.5905,-12.42,6.99,2.81
1999-01-02 04:00:19.9567,-0.3387,-0.0317,-10.2567,-18.25,18.63,3.92
1999-01-02 04:00:20.0257,-0.1891,0.4201,-8.7326,-19.28,16.31,0.31
1999-01-02 04:00:20.0947,-0.7229,0.4416,-7.2743,-6.45,9.52,3.09
1999-01-02 04:00:20.1637,-0.4452,0.2795,-7.4717,10.18,6.99,0.54
1999-01-02 04:00:20.2327,-0.4626,-0.1765,-9.7828,19.57,-6.72,0.96
1999-01-02 04:00:20.3017,-0.4273,0.0239,-10.8073,21.17,-10.39,0.23
1999-01-02 04:00:20.3707,-0.386,-0.134,-12.9472,16.29,-9.43,2.9
1999-01-02 04:00:20.4397,-1.1148,0.2543,-12.4338,-10.65,2.02,0.52
1999-01-02 04:00:20.5086,-0.4805,0.0425,-10.6385,-16.61,14.24,6.25
1999-01-02 04:00:20.5776,-0.4368,-0.0293,-9.048,-21.0,19.43,3.91
1999-01-02 04:00:20.6466,-0.4931,0.2579,-7.1827,-11.63,16.99,1.76
1999-01-02 04:00:20.7156,-0.0389,0.1921,-7.3275,5.79,2.63,1.96
1999-01-02 04:00:20.7846,-0.7971,-0.0928,-9.2861,16.62,-15.83,-0.71
1999-01-02 04:00:20.8536,-0.517,0.0533,-11.4201,17.99,-18.94,-1.18
1999-01-02 04:00:20.9226,-0.5978,0.0287,-13.1955,11.75,-18.16,2.42
1999-01-02 04:00:20.9916,-0.8587,0.2334,-12.8969,-9.23,3.57,1.78
1999-01-02 04:00:21.0606,-0.3034,0.1299,-10.3214,-20.08,14.52,3.46
1999-01-02 04:00:21.1296,-0.4632,0.3184,-8.6117,-21.57,17.7,2.5
1999-01-02 04:00:21.1986,-0.675,0.3207,-7.3287,-9.81,12.51,0.71
1999-01-02 04:00:21.2676,-0.4506,0.0892,-7.4005,9.89,-1.09,-0.46
1999-01-02 04:00:21.3366,-0.7666,0.0347,-9.2436,22.16,-11.38,-1.43
1999-01-02 04:00:21.4056,-0.2633,0.0551,-11.0383,26.59,-12.15,-2.35
1999-01-02 04:00:21.4745,-1.0957,-0.3967,-14.2475,13.47,-4.86,0.71
1999-01-02 04:00:21.5435,-0.69,-0.0981,-12.2578,-11.38,6.41,0.48
1999-01-02 04:00:21.6125,-0.6206,-0.2633,-10.5039,-18.72,23.93,0.55
1999-01-02 04:00:21.6815,-0.3596,0.4093,-8.3472,-22.97,11.66,3.65
1999-01-02 04:00:21.7505,-0.7121,0.1705,-7.0666,-7.65,11.49,1.25
1999-01-02 04:00:21.8195,-0.4901,0.1999,-7.467,8.77,1.83,-1.25
1999-01-02 04:00:21.8885,-0.8073,0.2418,-9.9318,19.27,-20.01,3.13
1999-01-02 04:00:21.9575,-1.1711,-0.1747,-12.426,18.74,-13.64,1.53
1999-01-02 04:00:22.0265,-0.4584,-0.058,-13.0555,4.2,0.39,0.81
1999-01-02 04:00:22.0955,-0.5571,-0.1622,-12.1076,-12.29,9.13,1.66
1999-01-02 04:00:22.1645,-0.9628,0.088,-10.2214,-22.58,16.42,2.94
1999-01-02 04:00:22.2335,-0.0497,0.5655,-8.2515,-16.51,20.48,1.87
1999-01-02 04:00:22.3025,-0.0993,0.4452,-6.7447,-6.08,11.8,0.8
1999-01-02 04:00:22.3715,-0.7372,0.2795,-7.5675,13.5,-2.63,-0.31
1999-01-02 04:00:22.4405,-0.8719,0.085,-10.0311,21.81,-16.99,-2.07
1999-01-02 04:00:22.5094,-0.8581,0.1472,-12.9328,23.89,-17.58,1.26
1999-01-02 04:00:22.5784,-1.0179,-0.2537,-14.3858,-0.41,-4.95,1.63
1999-01-02 04:00:22.6474,-0.6026,-0.1287,-11.5463,-16.38,11.31,1.75
1999-01-02 04:00:22.7174,-0.7438,-0.0395,-9.8744,-23.23,16.04,4.03
1999-01-02 04:00:22.7866,-0.9551,0.4309,-8.2766,-22.51,16.46,2.64
1999-01-02 04:00:22.8558,-0.286,0.6469,-6.6717,-6.68,8.07,3.15
1999-01-02 04:00:22.9251,-0.1867,0.5763,-7.2952,10.77,-6.76,0.2
1999-01-02 04:00:22.9943,-1.1286,0.0802,-10.3375,22.37,-21.24,1.02
1999-01-02 04:00:23.0635,-0.7719,-0.1694,-12.3332,25.96,-12.84,0.92
1999-01-02 04:00:23.1327,-0.7725,0.143,-13.9005,6.04,-4.88,1.3
1999-01-02 04:00:23.2019,-0.6786,-0.0491,-12.3763,-12.87,10.09,2.25
1999-01-02 04:00:23.2711,-0.9527,0.2783,-9.9599,-24.51,20.13,2.69
1999-01-02 04:00:23.3403,-0.6349,0.3148,-8.4172,-23.56,26.36,-0.24
1999-01-02 04:00:23.4095,-0.5697,0.5122,-6.2671,-8.7,13.59,1.65
1999-01-02 04:00:23.4788,-0.2184,0.3908,-6.5927,12.77,-5.55,-0.92
1999-01-02 04:00:23.5480,-0.4027,0.3267,-9.7996,29.68,-21.18,0.94
1999-01-02 04:00:23.6172,-0.8186,-0.3315,-12.9813,30.8,-18.92,1.17
1999-01-02 04:00:23.6864,-0.7546,-0.3309,-13.8382,11.32,-8.23,1.8
1999-01-02 04:00:23.7556,-0.7348,-0.4644,-12.7922,-14.82,12.34,0.94
1999-01-02 04:00:23.8248,-0.5829,-0.1035,-10.7133,-27.11,20.77,2.07
1999-01-02 04:00:23.8940,-0.8677,0.7755,-7.9684,-24.69,16.39,3.76
1999-01-02 04:00:23.9632,-0.4518,1.0556,-6.7578,-14.53,18.12,2.16
1999-01-02 04:00:24.0324,-0.6289,0.2603,-5.7178,15.16,3.47,1.57
1999-01-02 04:00:24.1017,-1.1627,0.137,-8.2539,28.44,-20.13,-1.23
1999-01-02 04:00:24.1709,-1.1531,0.0251,-13.8316,35.91,-27.57,4.07
1999-01-02 04:00:24.2401,-1.0526,-0.1065,-16.558,13.37,-6.83,4.44
1999-01-02 04:00:24.3093,-0.8186,-0.2184,-13.4612,-26.94,20.87,4.1
1999-01-02 04:00:24.3785,-0.8557,-0.0329,-9.1449,-35.45,29.73,5.59
1999-01-02 04:00:24.4477,-0.6128,0.3429,-5.7747,-28.27,28.3,1.79
1999-01-02 04:00:24.5169,-0.5715,0.1113,-5.0853,-0.52,9.12,2.2
1999-01-02 04:00:24.5861,-0.4835,0.2807,-7.4137,28.04,-17.94,-0.05
1999-01-02 04:00:24.6554,-0.8904,0.076,-11.0832,30.06,-27.25,-5.11
1999-01-02 04:00:24.7246,-1.2591,0.4518,-14.0686,24.86,-22.72,2.43
1999-01-02 04:00:24.7938,-0.9198,-0.6361,-15.6442,-0.94,6.34,0.09
1999-01-02 04:00:24.8630,-0.5571,0.0892,-11.0401,-25.86,22.88,1.71
1999-01-02 04:00:24.9322,-0.9072,0.0802,-9.1102,-28.59,25.69,1.75
1999-01-02 04:00:25.0014,-0.7737,0.7725,-5.9799,-16.07,20.09,1.0
1999-01-02 04:00:25.0706,-0.6511,0.4027,-6.3832,8.5,4.5,3.05
1999-01-02 04:00:25.1398,-0.6708,0.009,-8.0283,28.68,-17.35,-0.17
1999-01-02 04:00:25.2090,-1.4464,-0.529,-11.3129,32.68,-29.64,-2.37
1999-01-02 04:00:25.2783,-1.3416,-0.2992,-15.415,19.59,-19.62,-1.3
1999-01-02 04:00:25.3475,-0.9275,-0.058,-13.9334,-13.56,5.97,2.74
1999-01-02 04:00:25.4167,-0.8593,-0.0203,-10.5631,-28.44,25.24,3.88
1999-01-02 04:00:25.4859,-0.7833,0.2184,-7.6501,-26.23,24.13,3.18
1999-01-02 04:00:25.5551,-0.5805,0.0096,-6.2229,-9.63,14.56,1.41
1999-01-02 04:00:25.6243,-0.4374,0.4674,-6.4299,18.15,-7.32,-0.52
1999-01-02 04:00:25.6935,-1.0706,-0.3237,-11.1412,30.09,-18.38,-3.56
1999-01-02 04:00:25.7627,-1.1627,0.0257,-13.4361,17.18,-14.96,-1.75
1999-01-02 04:00:25.8319,-0.6086,-0.1167,-13.6228,-2.14,-1.34,1.48
1999-01-02 04:00:25.9012,-1.037,0.1293,-11.7743,-24.59,16.6,0.0
1999-01-02 04:00:25.9704,-0.6936,0.1825,-8.8026,-25.33,20.0,5.62
1999-01-02 04:00:26.0396,-0.6361,0.1478,-7.0678,-19.15,20.55,2.81
1999-01-02 04:00:26.1088,-0.2639,0.3345,-5.871,4.28,5.92,0.67
1999-01-02 04:00:26.1780,-0.9772,0.0592,-8.3628,25.58,-12.38,-0.98
1999-01-02 04:00:26.2472,-1.1878,-0.0754,-11.5816,34.21,-22.13,0.19
1999-01-02 04:00:26.3164,-1.1837,-0.5326,-14.9076,16.07,-14.61,1.7
1999-01-02 04:00:26.3856,-1.1089,-0.2555,-13.1698,-12.15,5.39,1.86
1999-01-02 04:00:26.4549,-0.7271,-0.2998,-11.1562,-29.44,20.21,2.27
1999-01-02 04:00:26.5241,-0.8527,0.4015,-8.0875,-33.27,25.02,2.65
1999-01-02 04:00:26.5933,-0.1705,0.8569,-5.6927,-15.73,19.67,2.55
1999-01-02 04:00:26.6625,-0.3782,0.4135,-6.409,15.79,-1.61,-0.46
1999-01-02 04:00:26.7317,-1.2716,-0.0048,-9.6248,28.74,-17.03,-1.23
1999-01-02 04:00:26.8009,-0.7785,0.1257,-12.7479,28.6,-26.22,2.92
1999-01-02 04:00:26.8701,-1.4069,-0.5182,-14.0405,9.69,-6.88,2.07
1999-01-02 04:00:26.9393,-1.1495,-0.1023,-12.5642,-23.36,9.0,3.01
1999-01-02 04:00:27.0085,-1.3027,0.3339,-8.7984,-31.69,21.64,4.63
1999-01-02 04:00:27.0778,-0.3908,0.7331,-6.0278,-12.15,24.87,2.82
1999-01-02 04:00:27.1470,-0.2053,0.0963,-5.3761,15.61,3.96,-0.36
1999-01-02 04:00:27.2162,-1.3404,-0.0892,-10.0479,26.18,-11.38,-5.83
1999-01-02 04:00:27.2854,-0.8378,-0.4057,-12.8796,27.32,-14.17,-0.88
1999-01-02 04:00:27.3546,-1.0586,-0.009,-14.8017,1.36,-2.25,-0.48
1999-01-02 04:00:27.4238,-1.2142,-0.1406,-12.0777,-25.01,17.68,2.84
1999-01-02 04:00:27.4930,-0.5434,0.2477,-8.6159,-29.69,22.55,4.65
1999-01-02 04:00:27.5622,-0.7337,0.2753,-6.3485,-13.54,18.53,4.4
1999-01-02 04:00:27.6314,-0.5499,0.1317,-6.0146,8.82,1.58,3.87
1999-01-02 04:00:27.7007,-1.4876,0.1382,-8.5261,33.25,-18.18,0.8
1999-01-02 04:00:27.7699,-1.8156,0.1981,-12.3386,33.68,-26.52,6.28
1999-01-02 04:00:27.8391,-0.9269,-0.8438,-16.871,6.68,-6.87,6.85
1999-01-02 04:00:27.9083,-0.7223,-0.0305,-11.6319,-25.29,15.31,6.37
1999-01-02 04:00:27.9775,-0.6906,0.0694,-8.6889,-29.93,25.21,4.11
1999-01-02 04:00:28.0467,-0.4961,0.3561,-5.8794,-13.93,19.13,0.88
1999-01-02 04:00:28.1159,-0.7277,0.2394,-6.1792,10.61,3.41,-1.76
1999-01-02 04:00:28.1851,-1.2704,-0.149,-9.8349,31.94,-17.23,-1.38
1999-01-02 04:00:28.2544,-1.2716,-0.1532,-12.5505,27.61,-20.28,-0.65
1999-01-02 04:00:28.3236,-1.2303,-0.6618,-14.8801,7.2,-3.34,1.09
1999-01-02 04:00:28.3928,-1.1442,-0.2136,-12.3272,-25.45,13.63,3.21
1999-01-02 04:00:28.4620,-0.8306,0.3052,-8.2251,-30.73,24.47,4.63
1999-01-02 04:00:28.5312,-0.6678,0.5655,-6.2271,-11.65,19.59,5.14
1999-01-02 04:00:28.6004,-0.751,0.1406,-6.3677,16.05,0.11,3.71
1999-01-02 04:00:28.6696,-0.9993,-0.456,-10.0168,33.14,-10.1,-2.18
1999-01-02 04:00:28.7388,-0.9587,-0.3632,-12.2195,25.34,-14.39,-2.98
1999-01-02 04:00:28.8080,-1.0448,-0.6271,-15.281,-0.01,-8.62,-0.46
1999-01-02 04:00:28.8773,-1.4464,0.0174,-11.4691,-26.97,10.12,-0.44
1999-01-02 04:00:28.9465,-0.8485,0.1855,-9.0521,-31.49,20.82,4.27
1999-01-02 04:00:29.0157,-0.5894,0.6277,-5.9907,-17.74,14.08,2.63
1999-01-02 04:00:29.0849,-0.5374,-0.0359,-6.2522,6.03,-1.27,0.62
1999-01-02 04:00:29.1541,-1.2626,0.3692,-8.6728,28.68,-14.31,0.83
1999-01-02 04:00:29.2233,-1.575,-0.4045,-13.1884,26.52,-20.87,1.75
1999-01-02 04:00:29.2925,-1.3327,-0.5727,-15.567,1.41,-3.26,5.7
1999-01-02 04:00:29.3617,-0.5799,0.1334,-11.3393,-32.01,16.15,5.24
1999-01-02 04:00:29.4310,-0.2711,0.3884,-7.7793,-30.19,28.58,3.2
1999-01-02 04:00:29.5002,-0.009,0.9688,-4.8423,-11.55,16.35,0.28
1999-01-02 04:00:29.5694,-1.0041,-0.3279,-6.9673,19.18,-6.65,-4.08
1999-01-02 04:00:29.6386,-1.8952,-0.1227,-9.2754,36.68,-24.12,-5.13
1999-01-02 04:00:29.7078,-1.1831,-0.2944,-13.8215,32.75,-27.36,-0.2
1999-01-02 04:00:29.7770,-1.3805,-0.3507,-16.1415,-7.28,-6.7,0.12
1999-01-02 04:00:29.8462,-1.1166,0.1741,-10.4806,-28.34,16.18,3.13
1999-01-02 04:00:29.9154,-1.207,-0.0191,-8.516,-30.59,21.29,5.19
1999-01-02 04:00:29.9846,-0.9616,0.319,-5.8483,-16.05,14.19,4.85
1999-01-02 04:00:30.0539,-0.5613,0.0598,-5.9739,11.06,-1.07,0.29
1999-01-02 04:00:30.1231,-1.3321,-0.2465,-9.8606,32.37,-21.91,-4.1
1999-01-02 04:00:30.1923,-1.7587,0.0383,-13.9394,29.51,-24.82,-2.61
1999-01-02 04:00:30.2615,-1.6426,-0.1682,-15.5497,0.58,-0.09,0.51
1999-01-02 04:00:30.3307,-1.3189,-0.1011,-11.535,-26.05,20.99,3.55
1999-01-02 04:00:30.3999,-1.0568,-0.0395,-8.2245,-26.64,32.24,3.49
1999-01-02 04:00:30.4691,-0.8713,0.2801,-5.7256,-14.51,19.97,1.56
1999-01-02 04:00:30.5383,-0.7301,0.1418,-6.4096,12.55,-5.66,-0.39
1999-01-02 04:00:30.6075,-1.6426,-0.1598,-10.8558,30.42,-21.07,-0.32
1999-01-02 04:00:30.6768,-1.5301,0.1442,-13.7718,22.61,-17.15,1.75
1999-01-02 04:00:30.7460,-1.3614,-0.2872,-14.9477,-12.0,4.33,3.28
1999-01-02 04:00:30.8152,-0.681,0.1628,-9.9127,-29.22,25.18,4.56
1999-01-02 04:00:30.8844,-0.7235,0.1909,-7.2282,-26.78,23.22,5.47
1999-01-02 04:00:30.9536,-0.9652,0.0802,-5.6292,-2.46,10.87,2.94
1999-01-02 04:00:31.0228,-1.198,0.1203,-6.7357,25.48,-11.28,-3.36
1999-01-02 04:00:31.0920,-1.6552,-0.1059,-12.1735,33.2,-25.35,-1.82
1999-01-02 04:00:31.1612,-0.888,0.3291,-14.2069,12.42,-17.64,0.32
1999-01-02 04:00:31.2305,-1.3351,-0.0868,-13.3404,-14.14,5.76,2.39
1999-01-02 04:00:31.2997,-1.0706,0.0628,-9.8229,-26.42,21.51,0.47
1999-01-02 04:00:31.3689,-1.3931,0.082,-7.4963,-23.4,20.93,1.86
1999-01-02 04:00:31.4381,-0.7869,0.1119,-5.5491,-0.43,6.4,3.8
1999-01-02 04:00:31.5073,-0.6421,0.2549,-7.1211,21.83,-13.85,-0.56
1999-01-02 04:00:31.5765,-1.4374,-0.2932,-12.2465,26.82,-20.77,-5.41
1999-01-02 04:00:31.6457,-1.6055,0.3118,-14.4582,10.95,-18.17,-2.11
1999-01-02 04:00:31.7149,-1.0969,0.0096,-13.3769,-16.43,1.34,1.72
1999-01-02 04:00:31.7841,-0.9204,0.2848,-9.2825,-26.52,19.39,3.03
1999-01-02 04:00:31.8534,-0.9892,0.2053,-7.2868,-21.96,22.12,1.77
1999-01-02 04:00:31.9226,-0.8617,0.1047,-6.1947,-0.33,7.04,1.49
1999-01-02 04:00:31.9918,-1.046,0.1143,-8.1019,22.34,-10.84,-2.09
1999-01-02 04:00:32.0610,-1.2938,0.1897,-12.052,25.06,-17.78,-3.3
1999-01-02 04:00:32.1302,-1.1968,0.2394,-13.9842,8.43,-7.34,-0.04
1999-01-02 04:00:32.1994,-1.1789,0.1921,-12.8036,-14.48,10.74,2.61
1999-01-02 04:00:32.2686,-1.0592,0.1975,-9.8809,-28.29,23.18,2.75
1999-01-02 04:00:32.3378,-0.5021,0.4165,-6.932,-20.54,21.25,2.01
1999-01-02 04:00:32.4071,-0.7217,-0.006,-5.8614,1.09,9.27,-0.94
1999-01-02 04:00:32.4763,-1.7761,0.0371,-8.1581,28.32,-11.7,-2.25
1999-01-02 04:00:32.5455,-1.0634,0.1586,-12.2315,29.2,-18.96,-1.09
1999-01-02 04:00:32.6147,-1.3267,-0.1741,-15.3372,10.47,-12.41,1.32
1999-01-02 04:00:32.6839,-1.2531,0.015,-12.6665,-18.4,9.46,3.47
1999-01-02 04:00:32.7531,-0.9778,-0.2627,-9.8654,-30.56,23.49,3.61
1999-01-02 04:00:32.8223,-0.6194,0.6307,-6.543,-24.78,21.43,1.22
1999-01-02 04:00:32.8915,-0.5583,0.7959,-5.4378,2.41,5.36,2.1
1999-01-02 04:00:32.9607,-0.9874,0.3973,-8.0103,31.54,-16.94,-0.13
1999-01-02 04:00:33.0300,-1.6229,-0.1293,-11.7725,37.7,-26.29,-1.06
1999-01-02 04:00:33.0992,-1.7731,-0.617,-15.5628,18.22,-13.0,0.71
1999-01-02 04:00:33.1684,-0.8671,-0.0862,-13.1644,-18.14,8.65,2.07
1999-01-02 04:00:33.2376,-1.1495,-0.1873,-10.0874,-26.43,20.63,4.99
1999-01-02 04:00:33.3068,-0.9616,0.2118,-6.9816,-26.55,19.71,2.94
1999-01-02 04:00:33.3760,-0.9317,0.2549,-5.6209,-3.96,7.96,2.53
1999-01-02 04:00:33.4452,-0.6792,0.0054,-6.6112,26.57,-13.97,-3.19
1999-01-02 04:00:33.5144,-1.517,0.2418,-11.9108,32.52,-22.41,-6.76
1999-01-02 04:00:33.5836,-2.0077,-0.1382,-15.5323,14.95,-14.42,-1.84
1999-01-02 04:00:33.6529,-1.4116,0.0281,-13.4876,-20.18,7.53,2.74
1999-01-02 04:00:33.7221,-0.8904,-0.1293,-10.4734,-31.82,21.94,2.74
1999-01-02 04:00:33.7913,-0.9407,0.2447,-6.9541,-32.98,21.77,-0.9
1999-01-02 04:00:33.8605,-0.7438,0.8862,-4.7639,-3.7,11.81,-3.21
1999-01-02 04:00:33.9297,-1.1328,0.1107,-7.1295,31.68,-10.68,-6.7
1999-01-02 04:00:33.9989,-1.6618,0.0503,-11.0299,36.66,-21.84,-3.2
1999-01-02 04:00:34.0681,-1.368,0.1795,-14.8537,21.23,-11.67,0.65
1999-01-02 04:00:34.1373,-1.7605,-0.1101,-14.8555,-11.72,6.14,4.6
1999-01-02 04:00:34.2066,-1.1077,0.2483,-10.2406,-30.06,25.19,6.13
1999-01-02 04:00:34.2758,-0.69,0.076,-7.5872,-30.97,30.06,4.71
1999-01-02 04:00:34.3450,-0.5858,0.3961,-5.2265,-9.12,15.47,3.45
1999-01-02 04:00:34.4142,-0.9233,-0.1215,-6.2636,16.21,-7.1,-3.15
1999-01-02 04:00:34.4834,-1.4344,-0.0407,-10.3381,29.7,-26.33,-5.43
1999-01-02 04:00:34.5526,-1.596,0.1777,-13.7299,25.83,-30.84,2.65
1999-01-02 04:00:34.6218,-1.6043,-0.0922,-16.2097,-2.38,-4.98,1.27
1999-01-02 04:00:34.6910,-1.6337,0.3441,-11.4362,-30.19,21.27,2.89
1999-01-02 04:00:34.7602,-1.3231,0.4171,-8.4208,-32.26,31.74,7.52
1999-01-02 04:00:34.8295,-0.3399,0.7301,-5.6825,-18.36,30.53,5.36
1999-01-02 04:00:34.8987,0.1281,0.2555,-4.8441,9.53,2.14,-0.25
1999-01-02 04:00:34.9679,-1.6935,-0.2848,-9.2131,31.07,-20.82,-3.6
1999-01-02 04:00:35.0371,-1.9873,-0.1412,-12.6025,40.08,-25.69,-1.99
1999-01-02 04:00:35.1063,-0.6086,0.1065,-15.3163,10.54,-18.73,3.61
1999-01-02 04:00:35.1755,-0.8725,0.0102,-13.5917,-23.32,7.95,4.46
1999-01-02 04:00:35.2447,-0.9802,0.1508,-9.9384,-34.97,24.74,3.9
1999-01-02 04:00:35.3139,-0.9156,0.7073,-6.3455,-28.93,25.59,3.24
1999-01-02 04:00:35.3831,-0.7731,0.0826,-5.0871,-1.86,10.07,1.77
1999-01-02 04:00:35.4524,-1.1466,0.0353,-6.6687,29.12,-15.09,-0.8
1999-01-02 04:00:35.5216,-1.1585,0.2573,-11.5535,37.99,-30.7,-4.05
1999-01-02 04:00:35.5908,-1.5277,0.2047,-15.3528,20.92,-19.18,-1.81
1999-01-02 04:00:35.6600,-1.5511,0.0604,-14.7029,-12.92,2.55,1.13
1999-01-02 04:00:35.7292,-1.59,0.3967,-10.4052,-34.18,26.0,3.34
1999-01-02 04:00:35.7984,-0.9557,0.2848,-7.3646,-33.42,26.33,4.52
1999-01-02 04:00:35.8676,-0.672,0.0736,-5.0075,-10.54,15.29,3.62
1999-01-02 04:00:35.9368,-0.8073,0.0347,-6.0984,17.39,-6.9,-3.86
1999-01-02 04:00:36.0061,-1.4841,0.4656,-9.7391,32.8,-33.05,-7.22
1999-01-02 04:00:36.0753,-1.6594,0.2878,-14.0519,32.55,-27.93,-2.2
1999-01-02 04:00:36.1445,-1.5056,-0.1903,-16.0589,-1.91,-3.01,-0.99
1999-01-02 04:00:36.2137,-1.7653,0.0036,-11.9485,-32.41,21.23,3.59
1999-01-02 04:00:36.2829,-1.2794,0.1478,-8.4944,-38.55,32.62,5.22
1999-01-02 04:00:36.3521,-0.6888,0.5027,-5.3965,-21.97,25.19,5.36
1999-01-02 04:00:36.4213,-0.1945,0.0862,-4.5599,11.47,6.76,-0.29
1999-01-02 04:00:36.4905,-1.3638,-0.2866,-8.8744,38.5,-18.76,-7.73
1999-01-02 04:00:36.5597,-1.7067,0.5224,-13.2177,37.0,-33.84,-2.35
1999-01-02 04:00:36.6290,-1.572,0.3644,-16.4647,5.84,-8.51,-0.82
1999-01-02 04:00:36.6982,-1.3015,0.3614,-11.8754,-23.64,19.01,2.92
1999-01-02 04:00:36.7674,-1.292,-0.0443,-8.8164,-30.51,28.64,5.64
1999-01-02 04:00:36.8366,-0.9718,-0.0072,-6.3408,-23.19,19.25,4.02
1999-01-02 04:00:36.9058,-0.6313,0.5631,-5.1236,3.9,0.33,-0.09
1999-01-02 04:00:36.9750,-1.4876,0.0563,-8.1079,36.63,-20.06,-3.99
1999-01-02 04:00:37.0442,-1.5379,0.2471,-13.1441,42.8,-27.88,-2.42
1999-01-02 04:00:37.1134,-2.198,-0.134,-16.245,8.25,-4.38,-1.01
1999-01-02 04:00:37.1827,-1.1316,0.1101,-12.3727,-24.93,16.6,5.21
1999-01-02 04:00:37.2519,-0.8916,0.1448,-8.5644,-32.77,25.17,4.75
1999-01-02 04:00:37.3211,-1.2273,0.1442,-6.1523,-19.34,20.05,3.91
1999-01-02 04:00:37.3903,-0.888,-0.0024,-5.4318,10.81,0.8,-1.09
1999-01-02 04:00:37.4595,-1.7623,-0.0497,-9.2251,33.53,-20.67,-2.42
1999-01-02 04:00:37.5287,-1.2788,0.4045,-13.1644,28.18,-21.2,-0.3
1999-01-02 04:00:37.5979,-1.3572,0.2154,-16.0434,4.43,-3.43,1.72
1999-01-02 04:00:37.6671,-1.8634,0.1562,-11.955,-30.45,18.78,4.26
1999-01-02 04:00:37.7363,-1.2656,-0.0862,-8.5052,-28.37,25.46,10.19
1999-01-02 04:00:37.8056,-0.8438,-0.0275,-5.631,-18.94,24.57,5.87
1999-01-02 04:00:37.8748,-0.1999,0.0347,-4.7574,9.99,0.66,1.02
1999-01-02 04:00:37.9440,-0.7989,-0.3495,-8.7278,40.92,-24.82,-9.51
1999-01-02 04:00:38.0132,-2.0885,0.3662,-14.0961,41.83,-25.18,-5.24
1999-01-02 04:00:38.0824,-1.8263,-0.38,-16.2211,2.7,-1.98,-0.6
1999-01-02 04:00:38.1516,-1.5056,-0.1089,-12.049,-25.19,21.73,2.61
1999-01-02 04:00:38.2208,-1.5517,-0.1502,-9.1676,-37.5,36.91,4.67
1999-01-02 04:00:38.2900,-0.3207,0.392,-5.6484,-24.22,24.32,3.96
1999-01-02 04:00:38.3592,-0.3447,0.2304,-4.9614,5.49,1.37,-0.23
1999-01-02 04:00:38.4285,-1.0131,-0.2848,-7.7919,36.35,-28.36,-5.1
1999-01-02 04:00:38.4977,-2.1118,-0.1047,-12.9466,43.31,-33.92,-4.36
1999-01-02 04:00:38.5669,-1.7192,-0.4362,-17.5436,9.2,-7.76,2.56
1999-01-02 04:00:38.6361,-0.7725,-0.0431,-11.818,-26.7,17.24,4.27
1999-01-02 04:00:38.7053,-1.5116,-0.1981,-9.1473,-36.47,28.96,5.5
1999-01-02 04:00:38.7745,-0.7013,0.3543,-5.6993,-23.56,24.9,3.58
1999-01-02 04:00:38.8437,0.0598,0.4332,-4.4342,7.62,0.98,-0.06
1999-01-02 04:00:38.9129,-1.3656,-0.219,-8.4813,34.88,-31.62,-3.89
1999-01-02 04:00:38.9822,-2.6486,-0.07,-14.8358,40.92,-30.37,-2.84
1999-01-02 04:00:39.0514,-2.1309,-0.2687,-16.0344,0.37,-5.36,2.01
1999-01-02 04:00:39.1206,-1.3015,-0.3483,-11.9862,-33.1,19.44,4.13
1999-01-02 04:00:39.1898,-0.8288,0.0634,-8.069,-39.19,27.1,4.44
1999-01-02 04:00:39.2590,-0.6002,0.6002,-5.4001,-21.04,21.28,0.33
1999-01-02 04:00:39.3282,-0.3644,0.4368,-5.1284,14.34,-3.05,-5.68
1999-01-02 04:00:39.3974,-1.5337,0.0162,-9.0258,40.25,-21.32,-9.98
1999-01-02 04:00:39.4666,-2.1722,-0.6397,-14.661,34.45,-23.82,-3.56
1999-01-02 04:00:39.5358,-2.4337,0.0916,-15.5222,-3.98,-3.15,1.92
1999-01-02 04:00:39.6051,-1.3219,-0.0796,-11.6887,-30.7,24.6,5.94
1999-01-02 04:00:39.6743,-1.0879,0.149,-8.7398,-39.7,27.36,9.7
1999-01-02 04:00:39.7435,-0.6206,0.6295,-5.3133,-24.61,20.02,7.53
1999-01-02 04:00:39.8127,-0.2621,0.3967,-4.8609,10.76,-0.36,1.04
1999-01-02 04:00:39.8819,-1.414,0.1526,-9.0091,37.56,-22.15,-4.64
1999-01-02 04:00:39.9511,-1.5206,0.0263,-14.4498,36.75,-25.06,-4.01
1999-01-02 04:00:40.0203,-1.8868,0.0796,-15.9596,1.23,2.63,-1.41
1999-01-02 04:00:40.0895,-1.3895,0.1245,-12.0903,-24.1,20.55,5.17
1999-01-02 04:00:40.1587,-1.5595,0.1454,-8.8325,-39.38,29.44,6.98
1999-01-02 04:00:40.2280,-0.6977,0.6152,-5.0985,-20.27,24.33,6.44
1999-01-02 04:00:40.2972,0.6588,0.6864,-4.5018,11.89,1.67,0.63
1999-01-02 04:00:40.3664,-1.493,0.2519,-9.398,38.41,-22.83,-7.37
1999-01-02 04:00:40.4356,-2.253,-0.395,-14.2787,38.38,-23.82,-1.34
1999-01-02 04:00:40.5048,-1.2764,0.1041,-16.5089,3.07,-4.28,1.57
1999-01-02 04:00:40.5740,-1.4691,0.1562,-12.2231,-31.96,22.23,4.39
1999-01-02 04:00:40.6432,-0.7851,0.1586,-8.7458,-40.56,31.48,5.84
1999-01-02 04:00:40.7124,-0.7283,0.6146,-5.3049,-26.91,24.76,3.43
1999-01-02 04:00:40.7817,-0.5045,0.5667,-4.0273,8.42,-2.71,1.03
1999-01-02 04:00:40.8509,-1.3997,0.2711,-8.6153,45.3,-27.96,-1.38
1999-01-02 04:00:40.9201,-1.8658,-0.3405,-14.0076,48.39,-29.86,-3.21
1999-01-02 04:00:40.9893,-2.0244,-0.3279,-17.1331,4.73,-7.21,-1.5
1999-01-02 04:00:41.0585,-1.3057,-0.0485,-12.1573,-29.42,14.66,4.81
1999-01-02 04:00:41.1277,-1.0682,0.0784,-8.1677,-37.28,28.97,5.54
1999-01-02 04:00:41.1969,-0.316,0.8809,-4.8992,-16.6,25.95,0.91
1999-01-02 04:00:41.2661,-0.5051,0.3824,-4.9345,24.45,-4.58,-1.0
1999-01-02 04:00:41.3353,-1.3931,-0.2639,-10.6116,42.37,-23.29,-0.42
1999-01-02 04:00:41.4046,-1.8712,-0.3967,-15.3301,28.2,-20.16,0.25
1999-01-02 04:00:41.4738,-1.6839,-0.7211,-15.4575,-13.25,3.65,2.15
1999-01-02 04:00:41.5430,-1.2902,-0.0922,-10.2603,-37.9,22.66,5.81
1999-01-02 04:00:41.6122,-0.7893,0.1903,-7.1133,-38.0,24.44,5.13
1999-01-02 04:00:41.6814,-0.1173,0.8426,-4.1069,-8.88,7.85,1.81
1999-01-02 04:00:41.7506,-0.3758,0.3824,-6.2528,29.46,-15.84,-2.63
1999-01-02 04:00:41.8198,-1.8186,-0.5075,-11.444,45.37,-25.25,-2.64
1999-01-02 04:00:41.8890,-1.8934,-0.3112,-15.5652,21.14,-14.32,0.04
1999-01-02 04:00:41.9583,-1.6534,-0.064,-14.3822,-23.08,8.69,6.21
1999-01-02 04:00:42.0275,-0.8569,-0.1311,-9.9073,-40.3,24.6,9.4
1999-01-02 04:00:42.0967,-0.377,0.4853,-6.0882,-31.76,26.25,6.59
1999-01-02 04:00:42.1659,0.015,0.6517,-3.9387,-0.56,12.14,-0.8
1999-01-02 04:00:42.2351,-0.7672,0.2872,-7.6142,39.72,-13.67,-4.96
1999-01-02 04:00:42.3043,-1.6025,-0.5481,-12.3087,44.51,-24.41,-6.49
1999-01-02 04:00:42.3735,-2.1728,-0.1604,-17.2192,9.69,-7.62,-1.64
1999-01-02 04:00:42.4427,-0.9598,-0.0311,-12.1926,-23.84,10.86,7.22
1999-01-02 04:00:42.5119,-0.8497,-0.0419,-9.1617,-35.69,27.2,7.31
1999-01-02 04:00:42.5812,-0.1867,0.6319,-5.1493,-19.35,24.47,2.7
1999-01-02 04:00:42.6504,-0.4099,0.4225,-5.2271,14.23,-2.32,-2.39
1999-01-02 04:00:42.7196,-1.2232,0.0628,-9.2975,35.56,-19.72,-5.92
1999-01-02 04:00:42.7888,-1.4847,-0.5589,-14.1739,36.03,-20.58,-2.46
1999-01-02 04:00:42.8580,-1.4482,0.1209,-15.2696,-4.75,-2.99,0.67
1999-01-02 04:00:42.9272,-0.9186,-0.2513,-11.6828,-28.84,19.0,3.83
1999-01-02 04:00:42.9974,-0.6415,0.0485,-8.1509,-34.19,22.21,2.78
1999-01-02 04:00:43.0666,-0.3692,0.8294,-4.9004,-11.2,15.01,1.86
1999-01-02 04:00:43.1357,-0.6271,-0.1215,-6.251,19.22,-6.83,-3.22
1999-01-02 04:00:43.2049,-1.6546,-0.1406,-10.0724,32.47,-22.25,-5.31
1999-01-02 04:00:43.2741,-1.271,-0.003,-14.3361,22.16,-30.87,-0.5
1999-01-02 04:00:43.3432,-1.8832,-0.0227,-15.4731,-10.21,-2.88,2.12
1999-01-02 04:00:43.4124,-1.0167,-0.0341,-10.851,-30.42,22.87,3.68
1999-01-02 04:00:43.4816,-0.8665,0.1717,-7.7811,-31.4,28.17,2.97
1999-01-02 04:00:43.5507,-0.3315,0.5368,-4.5874,-10.37,16.17,1.02
1999-01-02 04:00:43.6199,-0.7863,0.0868,-6.1056,23.96,-7.69,-3.4
1999-01-02 04:00:43.6890,-1.3153,0.4416,-10.8773,41.28,-20.55,0.19
1999-01-02 04:00:43.7582,-0.9221,-0.903,-16.5071,19.18,-13.72,3.39
1999-01-02 04:00:43.8274,-1.3243,0.1005,-13.7844,-13.46,4.74,-0.07
1999-01-02 04:00:43.8965,-1.344,-0.1951,-10.848,-33.91,22.37,1.73
1999-01-02 04:00:43.9657,-1.2016,0.5182,-7.4197,-41.38,28.75,3.93
1999-01-02 04:00:44.0349,0.2513,0.62,-4.8693,-13.47,16.11,3.19
1999-01-02 04:00:44.1040,-0.1939,0.4321,-5.1385,20.59,-15.78,-3.44
1999-01-02 04:00:44.1732,-1.8036,0.389,-12.0424,35.19,-32.97,-3.3
1999-01-02 04:00:44.2423,-1.5349,0.6822,-16.3306,22.23,-17.85,-2.65
1999-01-02 04:00:44.3115,-1.122,0.6301,-13.9465,-13.44,7.09,2.32
1999-01-02 04:00:44.3807,-1.2076,0.3172,-10.6565,-31.75,25.54,4.0
1999-01-02 04:00:44.4498,-1.116,0.2657,-6.8901,-29.08,30.18,5.73
1999-01-02 04:00:44.5190,-0.3076,0.4171,-4.5832,-3.45,13.39,4.87
1999-01-02 04:00:44.5882,-0.2262,0.5697,-6.3611,23.12,-13.41,-2.13
1999-01-02 04:00:44.6573,-1.5439,0.7929,-10.6104,37.89,-32.01,-0.14
1999-01-02 04:00:44.7265,-1.7821,-0.5882,-17.0463,27.68,-8.56,-2.13
1999-01-02 04:00:44.7956,-1.5642,0.4596,-14.0758,-17.33,7.81,1.43
1999-01-02 04:00:44.8648,-1.3195,0.286,-10.8617,-34.58,27.85,5.54
1999-01-02 04:00:44.9340,-0.8204,0.6427,-7.1654,-32.51,30.39,6.85
1999-01-02 04:00:45.0031,-0.3608,0.5039,-4.2505,-9.2,15.4,4.84
1999-01-02 04:00:45.0723,-0.4602,0.1245,-6.0104,16.42,-11.48,-0.15
1999-01-02 04:00:45.1415,-1.4266,0.0126,-10.9006,37.84,-28.93,-5.34
1999-01-02 04:00:45.2106,-1.5206,0.7217,-15.3911,30.84,-24.69,-3.89
1999-01-02 04:00:45.2798,-1.5475,0.4709,-15.4821,-5.44,0.9,1.84
1999-01-02 04:00:45.3489,-1.1741,0.1861,-11.4374,-29.64,25.96,6.79
1999-01-02 04:00:45.4181,-0.7103,0.2848,-8.0175,-35.48,29.86,5.27
1999-01-02 04:00:45.4873,-0.7265,1.0622,-5.3911,-18.86,20.77,2.71
1999-01-02 04:00:45.5564,-0.1723,0.3764,-4.971,20.05,-3.69,-1.97
1999-01-02 04:00:45.6256,-1.1705,0.1879,-9.182,38.83,-24.48,-6.32
1999-01-02 04:00:45.6947,-1.6091,0.0808,-14.913,23.35,-42.29,0.47
1999-01-02 04:00:45.7639,-1.4248,0.8737,-14.5791,-4.52,-10.61,1.97
1999-01-02 04:00:45.8331,-1.0131,0.3106,-12.2453,-19.64,20.82,3.85
1999-01-02 04:00:45.9022,-0.8396,0.3441,-8.5208,-34.05,22.95,0.73
1999-01-02 04:00:45.9714,-1.639,0.7696,-5.5748,-19.25,15.3,-3.06
1999-01-02 04:00:46.0406,-1.0406,0.7103,-5.7148,15.37,-7.2,-1.03
1999-01-02 04:00:46.1097,-1.4212,0.7833,-9.2347,32.24,-18.94,-2.0
1999-01-02 04:00:46.1789,-1.6953,-0.1526,-12.4212,44.33,-22.43,3.56
1999-01-02 04:00:46.2480,-1.4996,-0.3399,-17.0026,16.55,-8.82,3.05
1999-01-02 04:00:46.3172,-1.7138,-0.1711,-13.7437,-24.87,17.54,4.02
1999-01-02 04:00:46.3864,-1.0783,0.134,-9.5931,-38.33,29.14,8.13
1999-01-02 04:00:46.4555,-0.6535,0.4201,-5.9201,-33.79,26.2,4.9
1999-01-02 04:00:46.5247,-0.1065,0.8653,-4.6131,-1.42,11.89,1.92
1999-01-02 04:00:46.5939,-0.7761,0.2418,-7.3126,33.4,-15.11,-7.35
1999-01-02 04:00:46.6630,-1.8736,0.0604,-13.037,36.0,-33.49,-6.29
1999-01-02 04:00:46.7322,-1.9448,0.0844,-15.8944,7.28,-11.05,-1.6
1999-01-02 04:00:46.8013,-1.0729,0.4871,-12.7563,-24.24,13.06,4.17
1999-01-02 04:00:46.8705,-1.3692,0.2017,-9.9623,-36.21,30.49,5.57
1999-01-02 04:00:46.9397,-0.9646,0.7941,-6.0092,-27.23,29.16,8.2
1999-01-02 04:00:47.0088,-0.0138,0.5721,-4.8358,2.19,11.45,4.0
1999-01-02 04:00:47.0780,-1.1801,0.4721,-7.437,38.38,-12.13,-2.87
1999-01-02 04:00:47.1472,-1.5439,-0.2777,-11.8976,40.02,-24.68,-5.98
1999-01-02 04:00:47.2163,-1.6265,-0.0491,-15.5407,18.6,-13.72,-3.01
1999-01-02 04:00:47.2855,-1.4745,0.3477,-13.7539,-17.25,6.76,0.53
1999-01-02 04:00:47.3546,-0.9724,0.2986,-10.3537,-29.44,22.42,3.76
1999-01-02 04:00:47.4238,-0.678,0.7337,-7.0217,-27.5,21.18,4.78
1999-01-02 04:00:47.4930,-1.0897,0.2017,-5.5251,-2.53,9.93,2.78
1999-01-02 04:00:47.5621,-0.9993,0.1801,-6.1612,26.65,-10.99,-1.76
1999-01-02 04:00:47.6313,-1.3865,0.0395,-11.836,32.72,-22.88,-2.49
1999-01-02 04:00:47.7004,-1.7019,0.3118,-15.208,15.39,-15.13,-4.38
1999-01-02 04:00:47.7696,-1.6337,0.2286,-13.8083,-15.22,8.54,2.42
1999-01-02 04:00:47.8388,-1.1549,0.2926,-10.2071,-28.88,25.17,4.52
1999-01-02 04:00:47.9079,-1.0819,0.1789,-7.9714,-29.3,27.08,5.63
1999-01-02 04:00:47.9771,-0.5326,0.6068,-4.974,-6.53,14.81,4.46
1999-01-02 04:00:48.0463,-0.8671,0.2208,-5.8261,21.05,-6.89,-1.39
1999-01-02 04:00:48.1154,-1.3919,0.2047,-10.9581,36.02,-25.94,-6.53
1999-01-02 04:00:48.1846,-2.1501,0.1269,-15.1434,24.41,-20.12,-0.94
1999-01-02 04:00:48.2537,-1.1442,0.1179,-14.4193,-6.48,1.93,3.18
1999-01-02 04:00:48.3229,-1.4673,-0.0598,-11.3207,-30.33,21.86,4.53
1999-01-02 04:00:48.3921,-0.8067,0.3297,-7.5507,-28.87,29.22,5.16
1999-01-02 04:00:48.4612,-0.824,0.4386,-5.2433,-8.62,20.72,3.33
1999-01-02 04:00:48.5304,-0.5996,0.0622,-5.327,19.36,-4.77,-1.69
1999-01-02 04:00:48.5996,-1.7312,-0.0497,-10.2107,30.82,-26.76,-6.59
1999-01-02 04:00:48.6687,-1.5762,0.3884,-14.9902,24.95,-27.68,-0.83
1999-01-02 04:00:48.7379,-1.6648,0.2471,-15.0668,-7.39,-1.85,2.93
1999-01-02 04:00:48.8070,-1.5032,0.2579,-11.6331,-30.33,25.23,3.32
1999-01-02 04:00:48.8762,-1.3506,0.2609,-7.4047,-32.04,30.25,5.91
1999-01-02 04:00:48.9454,-0.5667,0.6918,-5.1368,-11.24,19.61,5.04
1999-01-02 04:00:49.0145,-0.5577,-0.0814,-6.0427,18.53,-6.69,1.41
1999-01-02 04:00:49.0837,-1.7276,-0.1424,-9.3699,42.31,-30.32,-1.41
1999-01-02 04:00:49.1529,-1.9987,-0.2298,-15.8794,32.98,-27.75,3.49
1999-01-02 04:00:49.2220,-1.2878,0.2346,-15.0428,-8.23,-1.37,2.44
1999-01-02 04:00:49.2912,-0.8755,-0.0963,-11.0508,-28.57,22.46,3.23
1999-01-02 04:00:49.3603,-1.4087,0.1161,-8.2682,-39.2,29.27,1.25
1999-01-02 04:00:49.4295,-0.6882,0.818,-4.7035,-18.96,18.47,0.74
1999-01-02 04:00:49.4987,-0.4398,0.2082,-5.4719,17.94,-8.43,-0.98
1999-01-02 04:00:49.5678,-1.7007,-0.1454,-9.8319,41.45,-26.27,-4.52
1999-01-02 04:00:49.6370,-2.1393,-0.2789,-15.4791,33.41,-25.87,-1.94
1999-01-02 04:00:49.7062,-1.7803,0.1059,-15.0997,-8.13,0.78,1.31
1999-01-02 04:00:49.7753,-1.3009,-0.0449,-11.6863,-33.85,22.72,4.1
1999-01-02 04:00:49.8445,-1.1729,0.4177,-7.8583,-38.25,29.93,4.22
1999-01-02 04:00:49.9136,-0.3991,0.9239,-4.4013,-13.17,19.36,3.63
1999-01-02 04:00:49.9828,-0.6481,0.3961,-4.7203,22.95,4.03,-2.42
1999-01-02 04:00:50.0520,-1.1442,-0.1598,-10.7085,41.03,-24.7,-3.65
1999-01-02 04:00:50.1211,-1.8527,-0.0987,-14.7861,29.69,-25.85,0.44
1999-01-02 04:00:50.1903,-1.3099,-0.0455,-14.5868,-7.9,5.81,2.22
1999-01-02 04:00:50.2594,-1.0323,-0.0144,-11.128,-28.79,21.79,3.54
1999-01-02 04:00:50.3286,-1.2124,0.3375,-7.8775,-33.14,24.01,2.95
1999-01-02 04:00:50.3978,-0.8952,0.5404,-5.3378,-11.31,14.63,2.78
1999-01-02 04:00:50.4669,-0.6355,-0.1023,-5.5054,18.38,-8.01,-0.49
1999-01-02 04:00:50.5361,-1.1687,-0.2531,-10.1048,39.86,-25.7,-7.95
1999-01-02 04:00:50.6053,-1.7635,0.3961,-14.4911,28.99,-27.06,-6.12
1999-01-02 04:00:50.6744,-2.1321,0.0694,-15.6945,-7.0,-2.35,-1.29
1999-01-02 04:00:50.7436,-1.3309,-0.0461,-11.4242,-27.28,20.64,4.99
1999-01-02 04:00:50.8127,-1.2644,0.0341,-8.5094,-36.47,28.67,5.25
1999-01-02 04:00:50.8819,-1.1053,0.3136,-6.1032,-24.33,20.36,3.0
1999-01-02 04:00:50.9511,-0.7809,0.8527,-4.5048,8.63,-0.21,-0.96
1999-01-02 04:00:51.0202,-1.8222,0.0916,-8.6201,38.66,-22.3,-3.42
1999-01-02 04:00:51.0894,-2.0699,0.21,-13.6886,47.17,-30.77,3.3
1999-01-02 04:00:51.1586,-1.8844,-0.1783,-17.0547,8.34,-5.9,0.53
1999-01-02 04:00:51.2277,-1.5451,0.4321,-12.7958,-24.81,14.97,5.41
1999-01-02 04:00:51.2969,-1.2363,0.1586,-9.3292,-38.7,29.56,6.18
1999-01-02 04:00:51.3660,-0.8695,0.2124,-5.6663,-28.91,21.99,4.24
1999-01-02 04:00:51.4352,-1.7845,-0.9844,-5.7806,-0.19,11.92,1.21
1999-01-02 04:00:51.5044,-1.2016,0.7187,-6.5837,28.24,-16.79,-2.01
1999-01-02 04:00:51.5735,-1.6139,0.3435,-12.5134,35.33,-29.74,-5.07
1999-01-02 04:00:51.6427,-1.8108,0.7205,-15.5251,17.51,-16.76,1.23
1999-01-02 04:00:51.7119,-1.7707,0.237,-14.9172,-22.72,14.01,3.67
1999-01-02 04:00:51.7810,-1.1902,0.1676,-9.6308,-37.23,30.04,6.43
1999-01-02 04:00:51.8502,-1.2333,0.4662,-6.491,-28.14,28.56,8.38
1999-01-02 04:00:51.9193,-0.8767,0.5224,-4.357,1.51,11.04,3.98
1999-01-02 04:00:51.9885,-1.365,0.0545,-5.9105,35.51,-14.66,-2.7
1999-01-02 04:00:52.0577,-2.0472,0.1125,-11.9413,43.37,-29.18,-3.17
1999-01-02 04:00:52.1268,-1.7276,0.2412,-16.5454,14.36,-18.87,-2.9
1999-01-02 04:00:52.1960,-1.5218,0.3955,-14.4648,-18.66,9.07,3.07
1999-01-02 04:00:52.2651,-1.0718,0.1927,-9.8133,-37.23,29.04,5.19
1999-01-02 04:00:52.3343,-0.7935,0.6104,-6.2025,-24.9,27.25,3.29
1999-01-02 04:00:52.4035,-1.2279,0.1574,-5.3635,3.82,14.72,0.24
1999-01-02 04:00:52.4726,-1.7144,-0.3686,-6.2989,25.91,-14.36,-4.24
1999-01-02 04:00:52.5418,-1.365,0.3118,-11.1909,42.29,-28.95,-4.8
1999-01-02 04:00:52.6110,-1.3165,0.2639,-15.7244,24.74,-26.13,-2.47
1999-01-02 04:00:52.6801,-1.6911,-0.2723,-16.1074,-13.8,3.78,0.85
1999-01-02 04:00:52.7493,-1.6744,-0.1574,-10.8581,-37.18,30.4,4.67
1999-01-02 04:00:52.8184,-1.1226,-0.0527,-7.4825,-39.15,31.44,5.46
1999-01-02 04:00:52.8876,-0.69,0.5027,-4.6203,-17.0,23.93,0.87
1999-01-02 04:00:52.9568,-0.0766,0.3435,-4.734,23.28,-4.73,-3.47
1999-01-02 04:00:53.0259,-1.1531,0.2424,-9.6368,38.96,-28.99,-9.81
1999-01-02 04:00:53.0951,-2.8299,-0.3219,-15.275,34.66,-25.42,-2.32
1999-01-02 04:00:53.1643,-1.4374,0.4003,-14.8472,-2.0,0.51,2.87
1999-01-02 04:00:53.2334,-1.4446,0.0592,-12.3769,-32.12,22.77,6.99
1999-01-02 04:00:53.3026,-1.2764,0.3961,-8.3281,-41.79,28.16,9.95
1999-01-02 04:00:53.3717,-1.1783,0.2842,-5.8183,-24.31,22.77,11.3
1999-01-02 04:00:53.4409,-0.1269,0.146,-3.8011,6.73,3.1,3.59
1999-01-02 04:00:53.5101,-1.4326,-0.0724,-8.8499,37.06,-26.66,-2.16
1999-01-02 04:00:53.5792,-2.2153,0.602,-13.0645,47.94,-33.24,-2.27
1999-01-02 04:00:53.6484,-1.4224,-0.1107,-17.1576,9.15,-8.36,-0.13
1999-01-02 04:00:53.7176,-1.3925,0.2801,-12.6103,-27.15,14.08,2.28
1999-01-02 04:00:53.7867,-1.5619,0.2519,-8.9109,-38.2,25.58,4.6
1999-01-02 04:00:53.8559,-0.8294,0.5284,-5.4743,-26.72,21.45,3.48
1999-01-02 04:00:53.9250,-0.9862,0.1496,-4.6832,6.23,-0.43,1.42
1999-01-02 04:00:53.9942,-1.2345,0.094,-7.7321,40.15,-26.64,-6.96
1999-01-02 04:00:54.0634,-2.2129,0.0718,-13.262,40.62,-27.91,-9.72
1999-01-02 04:00:54.1325,-2.718,-0.167,-16.8261,5.85,-9.93,-5.5
1999-01-02 04:00:54.2017,-2.4625,-0.1777,-13.0058,-24.59,9.83,4.3
1999-01-02 04:00:54.2709,-1.2148,-0.1819,-9.4513,-46.1,31.18,4.89
1999-01-02 04:00:54.3400,-0.5452,0.9042,-5.2648,-30.74,29.96,0.97
1999-01-02 04:00:54.4092,-0.5721,1.0335,-4.5425,-1.58,3.41,-0.72
1999-01-02 04:00:54.4783,-1.8694,0.6792,-7.0223,37.95,-17.63,-5.16
1999-01-02 04:00:54.5475,-1.9604,0.3267,-13.5277,44.61,-25.91,-2.47
1999-01-02 04:00:54.6167,-1.6049,0.0221,-16.8363,11.62,-9.47,0.17
1999-01-02 04:00:54.6858,-1.6139,0.3429,-13.4774,-21.76,18.17,4.82
1999-01-02 04:00:54.7550,-0.8839,0.362,-9.5016,-37.44,37.25,4.94
1999-01-02 04:00:54.8241,-1.3255,0.4745,-5.7621,-30.8,28.64,3.07
1999-01-02 04:00:54.8933,-0.8515,0.2968,-4.3367,-4.16,8.29,-0.3
1999-01-02 04:00:54.9625,-0.994,0.5613,-6.7477,35.0,-15.03,-4.06
1999-01-02 04:00:55.0316,-1.0891,0.3896,-11.9239,44.42,-30.18,-6.58
1999-01-02 04:00:55.1008,-2.4487,0.1071,-16.9129,17.26,-23.02,-1.33
1999-01-02 04:00:55.1700,-1.9939,0.5356,-14.4402,-18.33,7.95,5.83
1999-01-02 04:00:55.2391,-1.815,-0.1424,-11.1137,-44.25,16.2,13.56
1999-01-02 04:00:55.3083,-1.414,0.7001,-7.8499,-52.84,37.22,7.7
1999-01-02 04:00:55.3774,-0.1328,1.2405,-4.0189,-25.38,25.48,5.69
1999-01-02 04:00:55.4466,0.4332,1.73,-3.67,17.02,2.21,0.41
1999-01-02 04:00:55.5158,-0.5176,0.3979,-9.3771,53.73,-11.72,-12.65
1999-01-02 04:00:55.5849,-2.3039,0.1251,-15.8656,53.63,-28.11,-8.06
1999-01-02 04:00:55.6541,-2.4822,0.1765,-17.905,2.72,-0.18,-1.9
1999-01-02 04:00:55.7233,-0.6164,0.7073,-11.2639,-37.56,18.81,7.65
1999-01-02 04:00:55.7924,-0.7241,0.5374,-8.1563,-39.07,26.86,9.7
1999-01-02 04:00:55.8616,-0.3142,1.1501,-4.4372,-20.13,17.78,2.83
1999-01-02 04:00:55.9307,-0.2035,0.9952,-3.6814,27.43,-8.21,-0.21
1999-01-02 04:00:55.9999,-1.4805,-0.2884,-9.9905,51.18,-25.6,-7.53
1999-01-02 04:00:56.0691,-1.9951,0.0323,-15.217,41.63,-25.65,-5.94
1999-01-02 04:00:56.1382,-1.7318,0.2471,-16.9039,-6.12,-4.19,1.58
1999-01-02 04:00:56.2074,-1.3482,-0.0586,-12.0203,-33.92,23.2,7.59
1999-01-02 04:00:56.2766,-0.4033,0.4853,-7.3341,-39.76,31.82,6.83
1999-01-02 04:00:56.3457,-0.1897,1.0682,-4.4558,-14.51,15.68,4.08
1999-01-02 04:00:56.4149,-0.1628,0.3525,-4.141,29.66,-7.97,-4.02
1999-01-02 04:00:56.4840,-2.3601,-0.152,-10.9377,52.49,-34.51,-6.4
1999-01-02 04:00:56.5532,-3.7203,-1.5906,-19.486,34.39,-18.89,-1.47
1999-01-02 04:00:56.6224,-1.189,0.8402,-13.1405,-32.23,-1.1,2.66
1999-01-02 04:00:56.6915,-1.1214,0.7492,-9.489,-46.91,25.92,7.59
1999-01-02 04:00:56.7607,-0.6367,1.049,-5.2355,-26.75,32.58,5.71
1999-01-02 04:00:56.8298,-0.0832,0.316,-3.4157,9.25,7.39,4.67
1999-01-02 04:00:56.8990,-1.5068,0.1604,-7.3383,40.75,-18.52,-3.16
1999-01-02 04:00:56.9682,-1.6001,-0.736,-13.8095,54.78,-27.48,-6.36
1999-01-02 04:00:57.0373,-2.3206,0.0892,-17.6112,7.27,-14.88,-4.86
1999-01-02 04:00:57.1065,-1.9335,-0.2017,-13.335,-28.69,12.6,6.44
1999-01-02 04:00:57.1757,-0.4727,0.3656,-8.0157,-44.28,31.57,5.58
1999-01-02 04:00:57.2448,-0.6319,0.9916,-4.3792,-21.41,27.1,5.65
1999-01-02 04:00:57.3140,-0.3896,0.3106,-3.9483,25.94,4.33,0.76
1999-01-02 04:00:57.3831,-0.7325,-0.3668,-10.8163,40.51,-10.81,-7.41
1999-01-02 04:00:57.4523,-2.4738,0.1676,-15.1823,20.89,-20.21,-4.89
1999-01-02 04:00:57.5215,-0.8821,0.4051,-15.1499,-9.75,3.32,5.41
1999-01-02 04:00:57.5906,-1.0735,-0.0945,-11.3034,-35.74,23.53,5.58
1999-01-02 04:00:57.6598,-1.1866,0.0072,-7.756,-40.36,28.08,6.81
1999-01-02 04:00:57.7290,-0.6696,0.6666,-4.3235,-20.34,26.22,-0.18
1999-01-02 04:00:57.7981,0.3914,1.1124,-4.0171,26.26,-9.83,1.74
1999-01-02 04:00:57.8673,-1.2866,-0.2777,-12.496,48.49,-21.18,-5.2
1999-01-02 04:00:57.9364,-1.8611,0.3112,-14.828,25.53,-28.84,-0.03
1999-01-02 04:00:58.0056,-1.8874,0.1867,-15.3253,-12.37,5.17,3.09
1999-01-02 04:00:58.0748,-0.9347,0.2998,-10.5236,-33.99,20.2,10.19
1999-01-02 04:00:58.1439,-0.9048,0.5009,-7.4544,-29.01,32.92,3.13
1999-01-02 04:00:58.2131,-0.6331,0.5326,-4.9548,-13.27,16.39,-0.11
1999-01-02 04:00:58.2823,-0.3154,0.912,-3.9872,26.0,-14.16,-2.33
1999-01-02 04:00:58.3514,-2.2231,0.1909,-10.7139,62.6,-28.33,-0.04
1999-01-02 04:00:58.4206,-1.8485,-0.8844,-19.1312,22.84,-19.79,-0.73
1999-01-02 04:00:58.4897,-1.6073,0.4279,-14.2015,-23.65,12.12,-0.51
1999-01-02 04:00:58.5589,-1.0783,-0.0449,-10.4435,-46.87,27.84,6.47
1999-01-02 04:00:58.6281,-0.9018,0.4129,-6.0906,-38.57,29.3,3.52
1999-01-02 04:00:58.6972,-0.0658,0.8204,-3.1423,-1.58,11.57,2.67
1999-01-02 04:00:58.7664,-0.5511,0.2561,-6.6789,37.73,-17.3,-6.9
1999-01-02 04:00:58.8356,-1.9472,0.5751,-13.2925,46.14,-32.64,-5.79
1999-01-02 04:00:58.9047,-2.6049,0.2274,-17.3072,8.77,-11.27,-4.28
1999-01-02 04:00:58.9739,-1.2902,0.6529,-13.0669,-27.29,13.29,3.47
1999-01-02 04:00:59.0430,-0.961,0.0874,-9.6129,-36.22,26.6,5.46
1999-01-02 04:00:59.1122,-0.6971,0.2926,-6.6759,-29.98,27.26,3.76
1999-01-02 04:00:59.1814,-0.845,0.9084,-4.2415,1.47,6.3,0.64
1999-01-02 04:00:59.2505,-1.0807,0.5936,-7.2007,44.47,-15.56,-2.23
1999-01-02 04:00:59.3197,-1.8527,0.0622,-13.329,43.86,-23.03,-0.49
1999-01-02 04:00:59.3888,-1.2208,0.0443,-18.2557,9.91,-11.71,8.54
1999-01-02 04:00:59.4580,-1.7168,0.4195,-12.2345,-37.75,21.53,4.41
1999-01-02 04:00:59.5272,-1.5367,0.1173,-8.3101,-40.34,35.61,10.5
1999-01-02 04:00:59.5963,-0.5685,0.2615,-4.533,-17.29,33.0,12.96
1999-01-02 04:00:59.6655,-0.1053,0.301,-3.9693,16.35,3.1,3.37
1999-01-02 04:00:59.7347,-0.6553,-0.2998,-9.419,51.4,-23.75,-6.11
1999-01-02 04:00:59.8038,-1.3398,0.1694,-15.0105,49.46,-29.05,-5.56
1999-01-02 04:00:59.8730,-1.5918,0.0191,-17.1229,5.13,-11.12,1.03
1999-01-02 04:00:59.9421,-0.7743,0.0616,-11.8252,-30.36,18.45,2.9
1999-01-02 04:01:00.0113,-0.8856,-0.1209,-8.4089,-32.29,27.99,5.68
1999-01-02 04:01:00.0805,-0.6499,0.1915,-5.5197,-19.34,21.19,4.65
1999-01-02 04:01:00.1496,-0.2094,0.5045,-4.5557,17.94,-2.05,-2.33
1999-01-02 04:01:00.2188,-0.6541,-0.3022,-9.5416,47.38,-20.11,-7.86
1999-01-02 04:01:00.2880,-2.2057,-0.59,-15.5317,28.45,-35.5,-4.8
1999-01-02 04:01:00.3571,-2.1579,0.1514,-15.488,-8.7,-5.78,-0.52
1999-01-02 04:01:00.4263,-1.286,0.146,-11.4853,-33.77,25.21,1.45
1999-01-02 04:01:00.4954,-1.198,0.3728,-7.7578,-33.62,29.99,3.75
1999-01-02 04:01:00.5646,-0.3387,0.289,-4.8262,-13.82,20.89,1.39
1999-01-02 04:01:00.6338,-1.4853,0.167,-5.7495,13.8,-2.28,-3.92
1999-01-02 04:01:00.7029,-1.3243,0.1496,-9.9563,36.08,-21.33,-5.08
1999-01-02 04:01:00.7721,-1.3662,0.0383,-14.7556,25.05,-19.79,-3.99
1999-01-02 04:01:00.8413,-1.5128,0.0138,-15.3546,-9.48,2.54,1.78
1999-01-02 04:01:00.9104,-1.4948,-0.0461,-11.748,-33.08,37.02,-1.07
1999-01-02 04:01:00.9796,-0.6762,0.6397,-6.683,-35.46,33.14,3.16
1999-01-02 04:01:01.0487,-0.2914,0.8521,-4.5994,-11.41,17.17,2.38
1999-01-02 04:01:01.1179,-0.4368,0.3788,-6.017,29.28,-7.52,0.46
1999-01-02 04:01:01.1871,-1.4787,-0.383,-11.4996,42.76,-24.34,-4.17
1999-01-02 04:01:01.2562,-1.1567,-0.2777,-16.6484,16.27,-15.09,-0.6
1999-01-02 04:01:01.3254,-0.5392,0.1628,-13.7431,-17.29,5.55,2.05
1999-01-02 04:01:01.3945,-0.8384,0.1496,-10.7881,-36.04,25.8,0.85
1999-01-02 04:01:01.4637,-0.9198,0.5679,-6.7052,-31.75,29.31,-1.72
1999-01-02 04:01:01.5329,-0.7893,0.5918,-4.3708,-5.96,8.71,1.68
1999-01-02 04:01:01.6020,-0.982,-0.0497,-5.7681,33.22,-13.55,-1.72
1999-01-02 04:01:01.6712,-1.0101,-0.2525,-11.4117,40.34,-32.19,-3.83
1999-01-02 04:01:01.7404,-1.6821,0.5386,-17.5825,21.02,-26.35,-2.52
1999-01-02 04:01:01.8095,-1.2896,0.5176,-15.442,-20.18,8.07,5.0
1999-01-02 04:01:01.8787,-1.0825,0.0736,-9.8995,-41.7,31.55,7.38
1999-01-02 04:01:01.9478,-0.8414,0.1969,-5.8501,-31.91,32.38,6.76
1999-01-02 04:01:02.0170,-0.6128,0.2992,-2.9244,4.12,13.46,6.41
1999-01-02 04:01:02.0862,-1.2315,-0.1759,-7.4287,46.51,-17.28,-2.68
1999-01-02 04:01:02.1553,-1.517,0.3991,-15.4713,49.32,-35.53,0.76
1999-01-02 04:01:02.2245,-1.8,-0.2819,-18.8481,-10.71,-3.87,-4.3
1999-01-02 04:01:02.2937,-1.2345,0.0628,-10.7522,-42.88,25.29,0.24
1999-01-02 04:01:02.3628,-0.9144,0.1053,-5.6221,-36.27,25.57,5.58
1999-01-02 04:01:02.4320,-0.4979,0.1705,-3.688,-1.1,17.09,4.2
1999-01-02 04:01:02.5011,-0.7313,-0.6834,-6.2312,37.98,-13.2,-4.46
1999-01-02 04:01:02.5703,-1.3243,0.3979,-13.4888,43.25,-29.77,-2.39
1999-01-02 04:01:02.6395,-1.4428,0.1849,-18.0014,7.26,-16.62,-3.82
1999-01-02 04:01:02.7086,-1.0568,0.231,-12.8706,-25.07,9.74,3.49
1999-01-02 04:01:02.7778,-1.3081,-0.3578,-9.9605,-41.45,26.59,4.81
1999-01-02 04:01:02.8470,-1.0035,0.2944,-5.9733,-34.56,24.26,4.8
1999-01-02 04:01:02.9161,-0.4715,1.2698,-3.9184,3.0,9.07,4.86
1999-01-02 04:01:02.9853,-0.845,0.3369,-6.9811,48.16,-17.3,1.33
1999-01-02 04:01:03.0544,-1.4847,-0.6636,-14.5055,46.52,-22.72,0.23
1999-01-02 04:01:03.1236,-1.1507,-0.1933,-16.856,0.92,-7.48,1.18
1999-01-02 04:01:03.1928,-0.6176,0.0616,-12.4768,-33.15,14.18,1.72
1999-01-02 04:01:03.2629,-1.1866,0.4141,-8.2664,-38.96,23.44,4.01
1999-01-02 04:01:03.3319,-0.9359,0.1394,-5.8501,-26.96,23.19,3.28
1999-01-02 04:01:03.4008,-0.7043,-0.1969,-4.0925,12.53,4.45,1.08
1999-01-02 04:01:03.4698,-1.2435,-0.1765,-8.5758,42.38,-20.26,-7.66
1999-01-02 04:01:03.5387,-1.3847,0.9287,-15.3696,34.8,-27.9,-9.46
1999-01-02 04:01:03.6077,-1.9245,0.161,-17.0948,-1.37,-3.87,-1.94
1999-01-02 04:01:03.6767,-0.9198,0.0557,-11.6439,-32.74,23.22,2.13
1999-01-02 04:01:03.7456,-1.6941,0.0048,-7.9451,-39.83,29.7,4.86
1999-01-02 04:01:03.8146,-0.8958,0.3507,-4.5796,-17.14,25.7,4.66
1999-01-02 04:01:03.8835,-0.1143,0.4386,-4.81,18.85,-7.79,1.68
1999-01-02 04:01:03.9525,-1.0299,0.3148,-10.2304,38.15,-27.76,-4.12
1999-01-02 04:01:04.0214,-1.7025,0.2447,-15.7747,30.76,-26.11,-1.92
1999-01-02 04:01:04.0904,-1.0819,0.1831,-15.1272,-8.6,0.54,1.7
1999-01-02 04:01:04.1593,-1.0083,-0.0491,-11.9574,-31.33,30.73,3.61
1999-01-02 04:01:04.2283,-0.6445,0.3261,-7.145,-37.59,32.07,3.69
1999-01-02 04:01:04.2972,-0.7953,0.6253,-4.5725,-12.97,19.78,1.31
1999-01-02 04:01:04.3662,-0.7354,0.058,-5.2756,25.24,-8.44,-0.18
1999-01-02 04:01:04.4351,-1.1633,-0.0389,-11.1945,44.55,-28.11,-3.73
1999-01-02 04:01:04.5041,-1.7749,-0.0389,-15.4073,33.95,-24.38,-3.58
1999-01-02 04:01:04.5731,-1.1998,-0.0389,-16.2983,-6.88,-1.42,0.63
1999-01-02 04:01:04.6420,-1.1334,0.2023,-10.9443,-38.82,20.02,2.58
1999-01-02 04:01:04.7110,-1.292,0.3291,-7.607,-35.99,32.16,4.16
1999-01-02 04:01:04.7799,-0.7133,0.9263,-3.6802,-7.67,24.32,5.76
1999-01-02 04:01:04.8489,-0.4596,0.0832,-4.1673,41.48,-3.13,3.56
1999-01-02 04:01:04.9178,-1.3177,-0.8611,-13.2614,60.87,-19.23,1.44
1999-01-02 04:01:04.9868,-1.946,-0.4518,-18.4789,4.95,-9.38,-3.01
1999-01-02 04:01:05.0557,-0.7295,-0.0317,-12.9753,-28.11,18.1,5.56
1999-01-02 04:01:05.1247,-0.2777,0.0969,-8.8457,-44.98,30.11,4.25
1999-01-02 04:01:05.1936,-0.438,0.4327,-5.2116,-26.99,24.53,2.9
1999-01-02 04:01:05.2626,-0.605,0.2053,-3.8035,12.77,2.15,-0.08
1999-01-02 04:01:05.3315,-1.8114,0.2813,-8.4358,43.57,-20.12,-1.78
1999-01-02 04:01:05.4005,-0.5805,0.1251,-14.287,41.19,-32.77,-1.75
1999-01-02 04:01:05.4695,-1.6043,-0.0455,-16.8967,3.34,-10.38,-2.0
1999-01-02 04:01:05.5384,-0.6738,-0.0826,-12.3338,-27.51,15.73,3.62
1999-01-02 04:01:05.6074,-1.1112,-0.1322,-9.4561,-44.64,26.05,3.52
1999-01-02 04:01:05.6763,-0.9012,0.5751,-5.6544,-32.72,19.85,1.98
1999-01-02 04:01:05.7453,-0.5469,1.2686,-2.8945,11.78,-0.27,2.44
1999-01-02 04:01:05.8142,-0.8162,-0.4195,-8.8942,51.56,-19.01,-2.14
1999-01-02 04:01:05.8832,-1.3428,-1.0287,-15.8196,46.91,-23.42,-1.2
1999-01-02 04:01:05.9521,-1.1579,-0.2106,-16.2355,-8.49,-4.06,-3.12
1999-01-02 04:01:06.0211,-0.8312,-0.0395,-11.6289,-35.45,19.75,3.12
1999-01-02 04:01:06.0900,-0.7965,-0.0473,-8.3969,-41.42,29.37,4.74
1999-01-02 04:01:06.1590,-0.6379,0.7085,-4.6682,-22.14,20.72,2.42
1999-01-02 04:01:06.2280,-0.3573,0.5176,-4.579,28.89,-3.55,3.68
1999-01-02 04:01:06.2969,-0.7749,-0.1717,-9.8654,45.97,-20.5,-3.61
1999-01-02 04:01:06.3659,-1.0161,-0.6415,-14.2595,40.72,-20.95,-1.56
1999-01-02 04:01:06.4348,-1.4482,-0.5086,-17.5855,-6.86,-5.14,-2.95
1999-01-02 04:01:06.5038,-0.9539,-0.3249,-11.52,-34.47,18.0,2.53
1999-01-02 04:01:06.5727,-0.7444,0.0269,-7.9068,-42.24,27.19,1.3
1999-01-02 04:01:06.6417,-0.6331,0.4793,-4.7472,-19.22,18.4,0.53
1999-01-02 04:01:06.7106,-1.1567,0.0233,-3.7849,24.99,-3.31,0.76
1999-01-02 04:01:06.7796,-1.4547,-0.5326,-9.933,56.81,-24.53,5.73
1999-01-02 04:01:06.8485,-0.5116,-1.2309,-18.9929,27.48,-20.7,-0.19
1999-01-02 04:01:06.9175,-0.9987,0.3375,-14.664,-21.99,4.86,1.05
1999-01-02 04:01:06.9864,-0.7839,-0.304,-10.6409,-46.42,26.78,3.55
1999-01-02 04:01:07.0554,-0.8719,0.1825,-5.643,-39.65,30.46,5.09
1999-01-02 04:01:07.1244,-0.164,0.2106,-3.9136,-5.0,12.53,4.32
1999-01-02 04:01:07.1933,-0.3225,-0.149,-6.7124,44.39,-14.15,0.61
1999-01-02 04:01:07.2623,-1.5786,-0.7881,-14.8591,44.94,-26.85,-3.61
1999-01-02 04:01:07.3312,-1.3907,0.526,-16.1104,-4.71,-10.79,-0.24
1999-01-02 04:01:07.4002,-0.4195,-0.1711,-12.9454,-36.76,16.42,4.92
1999-01-02 04:01:07.4691,-0.2076,0.4225,-7.1271,-42.46,29.09,4.1
1999-01-02 04:01:07.5381,-0.5033,0.8456,-4.4486,-19.01,26.69,1.58
1999-01-02 04:01:07.6070,-0.0868,0.2705,-3.7849,28.7,-2.84,-2.19
1999-01-02 04:01:07.6760,-0.7761,-0.9168,-10.3932,55.92,-18.89,-5.33
1999-01-02 04:01:07.7449,-2.5534,-0.5086,-17.4802,28.16,-31.55,-8.96
1999-01-02 04:01:07.8139,-1.429,0.3836,-14.5815,-13.05,-2.26,2.42
1999-01-02 04:01:07.8828,-0.4787,-0.2759,-10.9623,-36.01,22.88,2.19
1999-01-02 04:01:07.9518,-0.9491,0.4536,-6.7339,-33.77,30.88,1.13
1999-01-02 04:01:08.0208,-0.3351,0.1526,-4.1123,-3.68,18.39,-2.09
1999-01-02 04:01:08.0897,-1.0604,-0.0233,-6.2061,30.2,-14.04,-1.79
1999-01-02 04:01:08.1587,-0.9581,-0.1173,-12.8892,40.29,-29.57,-2.92
1999-01-02 04:01:08.2276,-1.1753,0.2675,-16.7142,16.17,-17.33,-2.53
1999-01-02 04:01:08.2966,-0.9778,0.1909,-13.7467,-17.8,8.62,1.69
1999-01-02 04:01:08.3655,-1.1047,-0.082,-9.547,-38.68,20.64,6.54
1999-01-02 04:01:08.4345,-0.9676,0.1179,-5.646,-26.57,19.03,7.09
1999-01-02 04:01:08.5034,-0.2938,-0.3357,-4.3851,7.22,3.52,6.04
1999-01-02 04:01:08.5724,-0.5966,0.2621,-8.066,37.31,-19.64,-4.35
1999-01-02 04:01:08.6413,-1.4015,0.1448,-13.3439,31.08,-27.81,-9.46
1999-01-02 04:01:08.7103,-1.6432,-0.3507,-15.9081,8.48,-8.78,-3.63
1999-01-02 04:01:08.7793,-0.7277,-0.3525,-12.5283,-27.36,15.3,-2.05
1999-01-02 04:01:08.8482,-1.1902,-0.0592,-8.7793,-36.05,17.78,1.41
1999-01-02 04:01:08.9172,-0.745,0.4686,-5.3037,-22.79,18.69,-2.59
1999-01-02 04:01:08.9861,-0.5416,0.4608,-5.719,10.4,-4.97,-0.08
1999-01-02 04:01:09.0551,-1.3787,-0.368,-10.4554,36.18,-21.53,-4.59
1999-01-02 04:01:09.1240,-1.3781,0.1933,-13.6521,29.62,-21.13,-4.35
1999-01-02 04:01:09.1930,-1.1567,-0.0329,-15.9775,-3.01,1.66,-0.54
1999-01-02 04:01:09.2619,-0.7085,-0.0257,-11.8102,-29.65,20.1,2.35
1999-01-02 04:01:09.3309,-1.0568,0.2459,-8.3317,-35.86,28.87,4.84
1999-01-02 04:01:09.3998,-0.2352,0.4332,-4.7209,-21.46,19.59,4.03
1999-01-02 04:01:09.4688,-0.5966,0.6152,-4.9752,10.4,-2.95,2.03
1999-01-02 04:01:09.5377,-1.3614,-0.0598,-9.6368,42.92,-20.04,-3.46
1999-01-02 04:01:09.6067,-1.487,0.0233,-13.0597,36.44,-22.68,-3.47
1999-01-02 04:01:09.6757,-1.6899,-0.5481,-17.026,-1.87,-10.68,3.61
1999-01-02 04:01:09.7446,-0.684,0.5481,-11.1735,-30.56,13.98,6.76
1999-01-02 04:01:09.8136,-0.5811,0.3178,-8.8571,-36.25,27.79,5.93
1999-01-02 04:01:09.8825,-0.4189,0.5703,-5.3635,-9.13,8.49,3.16
1999-01-02 04:01:09.9515,-0.6642,0.2854,-5.062,13.99,-3.12,-2.22
1999-01-02 04:01:10.0204,-1.1184,-0.1454,-8.4274,35.88,-20.19,-7.49
1999-01-02 04:01:10.0894,-1.5224,-0.0078,-14.2218,31.27,-31.21,-4.88
1999-01-02 04:01:10.1583,-1.8317,0.1149,-17.0816,3.86,-12.95,-2.28
1999-01-02 04:01:10.2273,-1.1603,0.2041,-11.976,-23.03,19.66,3.17
1999-01-02 04:01:10.2962,-1.1053,0.0772,-9.3035,-34.11,29.6,6.17
1999-01-02 04:01:10.3652,-0.1939,0.6427,-5.6963,-22.66,22.77,4.11
1999-01-02 04:01:10.4342,-0.0287,0.456,-4.901,4.16,3.49,-0.94
1999-01-02 04:01:10.5031,-0.8581,0.2908,-6.908,34.93,-22.17,-9.46
1999-01-02 04:01:10.5721,-1.7408,-0.4225,-12.4607,44.42,-25.22,-8.24
1999-01-02 04:01:10.6410,-1.8048,-0.459,-16.1266,23.32,-15.02,-1.44
1999-01-02 04:01:10.7100,-1.5385,-0.0646,-14.4779,-19.4,13.76,1.23
1999-01-02 04:01:10.7789,-1.195,-0.0748,-10.2508,-39.97,30.3,6.96
1999-01-02 04:01:10.8479,-0.6176,0.4249,-6.5442,-34.11,27.76,8.34
1999-01-02 04:01:10.9168,-0.1568,0.6834,-4.6,-6.61,14.74,6.61
1999-01-02 04:01:10.9858,-0.7115,0.0557,-5.4611,29.85,-15.13,-0.52
1999-01-02 04:01:11.0547,-1.5475,-0.234,-11.4931,50.83,-30.75,-3.51
1999-01-02 04:01:11.1237,-2.1471,-0.6403,-16.5694,25.4,-28.53,0.8
1999-01-02 04:01:11.1926,-1.8168,-0.1167,-14.3295,-15.36,-0.31,5.32
1999-01-02 04:01:11.2616,-1.6259,-0.2418,-10.3992,-35.71,23.3,8.93
1999-01-02 04:01:11.3306,-1.3494,-0.0461,-7.6118,-33.22,29.09,10.81
1999-01-02 04:01:11.3995,0.091,0.4374,-4.436,-6.56,10.68,7.74
1999-01-02 04:01:11.4685,0.2471,0.2747,-6.248,25.94,-10.02,-2.45
1999-01-02 04:01:11.5374,-1.8515,0.0347,-11.3153,34.47,-24.95,-8.76
1999-01-02 04:01:11.6064,-2.3906,-0.3836,-15.3546,23.13,-13.56,-4.16
1999-01-02 04:01:11.6753,-1.2423,0.1059,-13.3266,-12.34,4.18,1.36
1999-01-02 04:01:11.7443,-1.4081,-0.0963,-11.1621,-34.38,19.92,5.39
1999-01-02 04:01:11.8132,-1.3374,0.3369,-8.3789,-38.04,23.87,8.13
1999-01-02 04:01:11.8822,-0.3387,0.6074,-4.7969,-19.56,17.1,1.24
1999-01-02 04:01:11.9511,-0.2513,0.8001,-5.029,17.89,-8.25,-1.5
1999-01-02 04:01:12.0201,-1.3093,-0.2645,-10.6732,43.88,-18.17,-9.34
1999-01-02 04:01:12.0890,-1.4182,-0.0389,-14.1703,33.62,-19.92,-9.36
1999-01-02 04:01:12.1580,-2.2512,-0.3255,-16.2672,-3.01,-2.3,-3.08
1999-01-02 04:01:12.2270,-1.4523,0.0604,-11.4691,-29.87,16.81,2.45
1999-01-02 04:01:12.2959,-1.0909,0.3716,-7.7488,-33.16,24.82,5.94
1999-01-02 04:01:12.3649,-0.5481,0.4662,-5.2044,-12.23,15.99,2.64
1999-01-02 04:01:12.4338,-0.6152,0.1562,-5.9859,21.5,-4.67,-4.03
1999-01-02 04:01:12.5028,-1.7839,-0.1418,-10.754,33.89,-19.82,-5.71
1999-01-02 04:01:12.5717,-1.9981,0.0892,-14.016,28.78,-18.67,-3.3
1999-01-02 04:01:12.6407,-2.1435,-0.523,-15.8662,-5.92,-0.97,0.69
1999-01-02 04:01:12.7096,-1.3979,-0.0186,-11.1968,-33.29,19.57,5.24
1999-01-02 04:01:12.7786,-0.2436,0.2202,-7.744,-33.95,26.15,3.48
1999-01-02 04:01:12.8475,-0.5457,0.6594,-5.0787,-17.74,16.11,-0.27
1999-01-02 04:01:12.9165,-0.9814,0.0826,-6.0044,16.12,-3.86,-0.92
1999-01-02 04:01:12.9855,-0.9754,0.3686,-8.9444,40.24,-22.37,-3.46
1999-01-02 04:01:13.0544,-2.0035,-0.7714,-15.1344,29.72,-18.24,-6.84
1999-01-02 04:01:13.1234,-2.0651,0.2011,-14.9112,-12.15,-2.94,0.46
1999-01-02 04:01:13.1923,-1.0029,0.0766,-11.0903,-34.0,16.88,5.23
1999-01-02 04:01:13.2613,-0.9838,0.1891,-7.6184,-32.82,27.49,6.14
1999-01-02 04:01:13.3302,-0.5511,0.0993,-5.476,-14.29,18.82,2.97
1999-01-02 04:01:13.3992,-1.1627,-0.1305,-5.6957,16.58,0.23,-1.73
1999-01-02 04:01:13.4681,-0.696,0.3351,-9.6164,40.19,-17.42,-6.3
1999-01-02 04:01:13.5371,-1.0514,0.234,-13.5534,27.34,-24.32,-5.65
1999-01-02 04:01:13.6060,-2.2913,-0.3034,-17.1821,-4.93,-5.01,-0.06
1999-01-02 04:01:13.6750,-1.4912,-0.0347,-11.4931,-33.5,10.12,7.08
1999-01-02 04:01:13.7439,-1.2435,0.0838,-8.0289,-32.16,24.25,8.09
1999-01-02 04:01:13.8129,-0.6301,0.535,-5.0985,-16.32,20.94,5.22
1999-01-02 04:01:13.8819,-0.7313,0.0527,-5.4814,20.76,-4.78,-2.1
1999-01-02 04:01:13.9508,-1.946,-0.2202,-9.8564,39.88,-21.02,-3.88
1999-01-02 04:01:14.0198,-0.9293,0.0197,-14.0327,22.68,-22.56,-2.98
1999-01-02 04:01:14.0887,-1.4655,0.3315,-14.965,-3.82,-0.55,-0.79
1999-01-02 04:01:14.1577,-1.8629,-0.2956,-12.5175,-28.16,20.76,3.13
1999-01-02 04:01:14.2266,-1.4763,0.2986,-8.7326,-38.37,26.75,6.1
1999-01-02 04:01:14.2956,-1.1489,0.5906,-5.6843,-25.13,27.04,4.8
1999-01-02 04:01:14.3645,0.1005,0.5332,-4.804,13.13,1.32,1.64
1999-01-02 04:01:14.4335,-1.2136,0.5212,-7.9349,38.82,-22.51,-5.62
1999-01-02 04:01:14.5024,-1.8533,-0.6421,-13.8179,42.55,-25.17,-3.79
1999-01-02 04:01:14.5714,-2.0131,-0.2519,-16.4222,5.01,-8.94,2.35
1999-01-02 04:01:14.6403,-0.991,-0.213,-12.6659,-22.56,13.73,5.08
1999-01-02 04:01:14.7093,-1.0448,0.0024,-9.6272,-37.94,26.21,3.13
1999-01-02 04:01:14.7783,-1.0765,0.6032,-6.5119,-35.11,22.37,0.49
1999-01-02 04:01:14.8472,-0.6146,0.4931,-3.8508,2.14,4.16,1.59
1999-01-02 04:01:14.9162,-0.5775,-0.1759,-7.2306,35.47,-15.42,-4.8
1999-01-02 04:01:14.9851,-1.271,-0.2047,-11.9556,43.74,-33.01,-5.82
1999-01-02 04:01:15.0541,-1.6947,-0.3914,-17.2258,17.69,-15.21,-2.03
1999-01-02 04:01:15.1230,-1.1154,-0.015,-13.7934,-21.86,10.73,2.23
1999-01-02 04:01:15.1920,-1.4188,0.0371,-9.6314,-36.96,25.6,5.72
1999-01-02 04:01:15.2609,-0.7779,0.4698,-6.3455,-26.85,24.72,6.18
1999-01-02 04:01:15.3299,-0.0317,0.368,-3.8741,4.52,6.81,2.98
1999-01-02 04:01:15.3988,-0.7923,-0.1041,-7.2312,34.98,-17.23,-4.8
1999-01-02 04:01:15.4678,-1.2866,-0.5338,-12.9328,42.91,-29.9,-4.48
1999-01-02 04:01:15.5368,-1.5708,-0.3734,-16.9769,4.49,-18.45,-1.61
1999-01-02 04:01:15.6057,-0.9892,-0.283,-13.785,-23.78,11.15,2.79
1999-01-02 04:01:15.6747,-0.8551,-0.0383,-10.0605,-45.15,27.82,4.61
1999-01-02 04:01:15.7436,-0.8916,0.4512,-6.7662,-36.9,28.63,3.46
1999-01-02 04:01:15.8126,-0.2938,1.0137,-4.2248,-7.55,17.12,1.5
1999-01-02 04:01:15.8815,-1.1172,0.1143,-6.1158,36.64,-8.53,-1.75
1999-01-02 04:01:15.9505,-1.0634,-0.6577,-10.6397,49.21,-22.65,-6.07
1999-01-02 04:01:16.0194,-1.189,-0.587,-15.1589,33.87,-19.08,-1.78
1999-01-02 04:01:16.0884,-0.9993,-0.094,-15.6388,-5.81,2.3,0.96
1999-01-02 04:01:16.1573,-1.2124,-0.0174,-11.0634,-33.68,22.77,4.59
1999-01-02 04:01:16.2263,-0.9233,-0.0138,-7.6782,-37.08,29.0,6.3
1999-01-02 04:01:16.2952,-0.5362,0.2956,-4.4605,-14.74,19.57,6.32
1999-01-02 04:01:16.3642,-0.4003,-0.1951,-5.4174,20.78,-5.88,0.95
1999-01-02 04:01:16.4332,-1.1561,-0.5104,-10.5117,39.86,-30.81,-2.24
1999-01-02 04:01:16.5021,-1.2082,0.1161,-14.7969,32.72,-27.53,0.07
1999-01-02 04:01:16.5711,-1.0149,-0.1125,-15.8256,-7.52,-2.63,1.5
1999-01-02 04:01:16.6400,-1.4051,-0.1011,-11.6038,-30.86,19.16,6.05
1999-01-02 04:01:16.7090,-1.268,-0.0425,-7.9481,-37.09,27.7,8.31
1999-01-02 04:01:16.7779,-0.6469,0.1047,-4.8202,-19.52,15.91,5.11
1999-01-02 04:01:16.8469,-0.1418,0.4207,-5.3342,17.55,-13.06,1.9
1999-01-02 04:01:16.9158,-1.2214,-0.2878,-10.617,41.27,-27.4,-3.24
1999-01-02 04:01:16.9848,-1.2142,-0.459,-15.4665,28.73,-19.57,-0.97
1999-01-02 04:01:17.0537,-1.6504,-0.1221,-15.062,-11.69,1.35,-0.46
1999-01-02 04:01:17.1227,-1.3404,-0.3686,-11.0999,-32.79,23.15,4.44
1999-01-02 04:01:17.1917,-1.1442,0.2669,-7.2007,-34.82,28.87,5.77
1999-01-02 04:01:17.2606,-0.2824,0.6116,-4.5228,-7.14,12.61,6.1
1999-01-02 04:01:17.3296,-0.769,-0.3124,-5.8818,23.82,-12.48,-2.63
1999-01-02 04:01:17.3985,-2.0615,-0.2591,-11.3776,45.9,-25.27,-1.5
1999-01-02 04:01:17.4675,-1.4721,-0.0467,-17.2671,10.68,-25.92,1.33
1999-01-02 04:01:17.5364,-0.7839,0.4255,-13.1644,-18.68,5.99,5.58
1999-01-02 04:01:17.6054,-1.5642,-0.4279,-11.1717,-39.38,28.16,5.46
1999-01-02 04:01:17.6743,-1.4823,0.067,-6.9182,-35.02,33.51,7.36
1999-01-02 04:01:17.7433,-0.1299,0.5685,-4.4366,-7.74,14.14,7.95
1999-01-02 04:01:17.8122,-0.1556,0.3076,-5.1643,33.57,-16.0,0.0
1999-01-02 04:01:17.8812,-1.3997,-0.1562,-10.5063,45.12,-38.0,-5.8
1999-01-02 04:01:17.9501,-1.4368,-0.6559,-14.7478,32.04,-24.78,-2.14
1999-01-02 04:01:18.0191,-1.4452,-0.3878,-15.6107,-7.4,0.03,0.03
1999-01-02 04:01:18.0881,-0.9808,-0.4763,-11.757,-32.94,19.95,2.59
1999-01-02 04:01:18.1570,-1.429,0.0808,-8.1324,-43.87,23.84,5.56
1999-01-02 04:01:18.2260,-0.9425,0.7145,-4.7819,-21.12,19.89,2.05
1999-01-02 04:01:18.2949,-0.3339,-0.1346,-4.1984,18.43,2.72,-3.19
1999-01-02 04:01:18.3639,-0.988,-0.4542,-8.5615,51.11,-20.06,-7.8
1999-01-02 04:01:18.4328,-2.2327,-0.736,-16.4599,35.31,-30.08,-9.4
1999-01-02 04:01:18.5018,-2.3302,-0.2956,-15.9147,-7.6,-14.17,-3.12
1999-01-02 04:01:18.5707,-1.0514,-0.2729,-11.8186,-38.32,20.79,3.61
1999-01-02 04:01:18.6397,-0.9575,0.0658,-7.1378,-38.73,26.32,5.44
1999-01-02 04:01:18.7086,-0.891,-0.0168,-4.8322,-16.34,18.58,2.37
1999-01-02 04:01:18.7776,-1.195,-0.0874,-5.26,18.72,-5.01,-0.96
1999-01-02 04:01:18.8465,-1.1208,-0.4189,-11.2328,44.04,-21.32,-2.77
1999-01-02 04:01:18.9155,-1.5541,0.1215,-16.6526,22.99,-19.57,-5.43
1999-01-02 04:01:18.9845,-1.2585,0.0341,-14.2691,-15.67,4.58,0.6
1999-01-02 04:01:19.0534,-1.3823,-0.2035,-11.2776,-38.18,20.61,6.79
1999-01-02 04:01:19.1224,-1.3566,-0.0096,-7.9858,-41.74,27.34,5.08
1999-01-02 04:01:19.1913,-0.377,0.7055,-4.8094,-18.3,19.25,3.11
1999-01-02 04:01:19.2603,-0.1664,0.7725,-4.5766,15.23,-6.3,-1.61
1999-01-02 04:01:19.3292,-1.3907,0.0969,-10.2113,45.68,-23.54,-4.04
1999-01-02 04:01:19.3982,-1.666,-0.8378,-14.2338,46.76,-27.99,0.82
1999-01-02 04:01:19.4671,-2.198,-0.0479,-16.7268,-1.29,-5.22,1.1
1999-01-02 04:01:19.5361,-1.2315,-0.1783,-12.049,-31.36,19.82,6.85
1999-01-02 04:01:19.6050,-0.8647,0.1197,-8.297,-46.47,26.36,7.25
1999-01-02 04:01:19.6740,-1.055,0.1029,-4.6981,-19.29,19.71,5.1
1999-01-02 04:01:19.7430,-0.693,0.0999,-3.9878,18.25,-1.06,-1.33
1999-01-02 04:01:19.8119,-1.2704,-0.1855,-10.0856,43.5,-19.61,-4.24
1999-01-02 04:01:19.8809,-1.3153,0.1735,-14.0459,33.05,-23.6,-6.01
1999-01-02 04:01:19.9498,-2.3715,-0.3525,-17.233,-1.64,-2.98,2.76
1999-01-02 04:01:20.0188,-1.3147,0.1711,-11.2334,-37.26,20.29,5.64
1999-01-02 04:01:20.0877,-0.961,0.2483,-8.0289,-39.63,33.66,5.63
1999-01-02 04:01:20.1567,-0.6894,0.6511,-4.6526,-13.2,25.42,4.02
1999-01-02 04:01:20.2256,-0.4793,0.3961,-5.0308,22.0,-3.69,0.48
1999-01-02 04:01:20.2946,-1.8802,-0.207,-9.471,47.26,-23.75,1.0
1999-01-02 04:01:20.3635,-1.0927,-0.8617,-14.7706,42.76,-28.94,4.95
1999-01-02 04:01:20.4325,-1.0347,-0.7055,-16.4198,-12.16,-7.7,0.3
1999-01-02 04:01:20.5014,-1.4242,-0.304,-11.6995,-35.45,18.68,0.89
1999-01-02 04:01:20.5704,-1.2232,0.2017,-7.5579,-41.09,23.53,1.56
1999-01-02 04:01:20.6394,-1.0765,0.5069,-3.9585,-11.79,18.14,1.83
1999-01-02 04:01:20.7083,-0.5224,-0.0413,-4.6963,28.16,-3.77,-1.96
1999-01-02 04:01:20.7773,-0.6756,-0.8575,-12.3919,45.47,-23.63,-7.32
1999-01-02 04:01:20.8462,-2.4888,-0.4177,-16.394,21.59,-23.51,-5.5
1999-01-02 04:01:20.9152,-1.3847,-0.292,-14.2721,-11.0,6.38,0.54
1999-01-02 04:01:20.9841,-1.4027,-0.368,-11.0538,-35.45,36.18,2.0
1999-01-02 04:01:21.0531,-0.3453,0.1454,-6.5831,-31.3,30.63,4.46
1999-01-02 04:01:21.1220,-0.447,0.6481,-4.5497,-9.95,10.06,1.03
1999-01-02 04:01:21.1910,-1.344,0.1699,-5.9751,32.15,-10.93,-3.86
1999-01-02 04:01:21.2599,-2.1842,-0.5996,-13.3009,44.11,-32.23,3.62
1999-01-02 04:01:21.3289,-1.8257,-0.511,-16.8895,14.57,-20.31,1.76
1999-01-02 04:01:21.3978,-1.5888,-0.0826,-14.4833,-37.0,-3.83,11.03
1999-01-02 04:01:21.4668,-0.7917,0.2005,-8.3185,-43.73,24.43,10.09
1999-01-02 04:01:21.5358,-1.0508,0.6912,-5.4599,-20.84,26.21,6.06
1999-01-02 04:01:21.6047,-0.6301,-0.0461,-4.0746,21.75,10.27,-0.03
1999-01-02 04:01:21.6737,-1.1956,-0.2184,-8.1216,42.4,-16.84,-3.75
1999-01-02 04:01:21.7426,-2.0723,-0.4362,-14.5336,38.65,-26.75,-4.59
1999-01-02 04:01:21.8116,-2.3685,-0.3997,-16.9841,-2.63,-7.55,-0.73
1999-01-02 04:01:21.8805,-1.0239,-0.3381,-12.7838,-30.12,18.43,4.08
1999-01-02 04:01:21.9495,-0.6211,0.2334,-7.7344,-42.09,21.63,8.18
1999-01-02 04:01:22.0184,-0.6403,0.5978,-4.6999,-18.44,18.41,5.03
1999-01-02 04:01:22.0874,-0.8635,0.0042,-5.2457,14.74,-1.3,-0.31
1999-01-02 04:01:22.1563,-1.3345,-0.1077,-9.5069,37.78,-13.91,-5.0
1999-01-02 04:01:22.2253,-2.1333,-0.4548,-16.0069,33.26,-25.84,-2.8
1999-01-02 04:01:22.2943,-2.2393,-0.0766,-15.5952,-3.44,-0.74,-3.74
1999-01-02 04:01:22.3632,-1.1561,-0.4626,-12.2147,-30.91,22.47,3.55
1999-01-02 04:01:22.4322,-0.9467,-0.0934,-7.741,-38.24,23.4,3.63
1999-01-02 04:01:22.5011,-1.3416,0.2902,-5.4886,-23.09,19.6,1.54
1999-01-02 04:01:22.5701,-1.1478,0.6331,-5.0021,19.29,2.4,-1.62
1999-01-02 04:01:22.6390,-1.7061,-0.754,-9.0174,51.49,-20.25,-1.22
1999-01-02 04:01:22.7080,-1.6462,-0.4321,-15.594,34.42,-20.88,-5.98
1999-01-02 04:01:22.7769,-1.2842,0.2896,-14.3726,-3.85,-3.94,2.96
1999-01-02 04:01:22.8459,-1.4631,-0.4135,-13.0358,-35.17,21.26,6.05
1999-01-02 04:01:22.9148,-1.4829,0.1017,-8.2377,-42.02,30.6,7.98
1999-01-02 04:01:22.9838,-0.8761,0.3243,-4.8298,-22.95,21.52,8.26
1999-01-02 04:01:23.0527,-0.4327,0.0892,-4.7885,12.57,-0.37,2.25
1999-01-02 04:01:23.1217,-0.4584,0.0102,-8.2401,44.42,-18.6,-4.07
1999-01-02 04:01:23.1907,-1.4039,-0.2352,-14.062,39.07,-30.0,-4.24
1999-01-02 04:01:23.2596,-2.4924,-0.1652,-17.5214,-2.79,-7.39,-0.76
1999-01-02 04:01:23.3286,-1.0305,-0.2029,-11.4943,-31.51,17.77,5.63
1999-01-02 04:01:23.3975,-0.979,0.0359,-8.8158,-43.28,26.06,6.36
1999-01-02 04:01:23.4665,-1.0143,0.7498,-5.278,-24.67,19.61,5.38
1999-01-02 04:01:23.5364,-0.4219,0.3435,-4.4067,13.12,0.74,0.3
1999-01-02 04:01:23.6056,-1.3135,0.2507,-9.3358,43.44,-22.93,-7.49
1999-01-02 04:01:23.6749,-1.806,-0.3339,-14.2649,36.87,-16.2,-7.5
1999-01-02 04:01:23.7441,-2.168,-0.9946,-16.5993,3.61,-3.45,-1.57
1999-01-02 04:01:23.8133,-1.4817,-0.1263,-12.5522,-30.52,16.03,3.46
1999-01-02 04:01:23.8825,-1.1011,-0.0425,-8.7278,-39.83,28.53,7.69
1999-01-02 04:01:23.9517,-0.5583,0.164,-5.6328,-24.44,25.27,5.4
1999-01-02 04:01:24.0209,-0.5984,0.3225,-4.3439,9.88,-1.14,2.06
1999-01-02 04:01:24.0901,-1.6636,0.0078,-8.7123,43.22,-27.48,-2.47
1999-01-02 04:01:24.1594,-1.3949,0.0539,-14.3918,41.33,-27.68,-2.2
1999-01-02 04:01:24.2286,-1.5349,-0.2507,-17.2743,1.1,-3.22,0.76
1999-01-02 04:01:24.2978,-1.0388,-0.1813,-11.7246,-31.78,20.02,6.22
1999-01-02 04:01:24.3670,-0.9814,-0.0963,-7.689,-39.39,29.11,8.6
1999-01-02 04:01:24.4362,-0.2304,0.4105,-4.3283,-13.42,18.13,8.56
1999-01-02 04:01:24.5054,-0.2519,-0.1544,-4.8902,26.06,-6.13,-1.01
1999-01-02 04:01:24.5747,-1.6067,-0.7791,-10.225,52.9,-23.18,-6.11
1999-01-02 04:01:24.6439,-2.259,-1.1065,-16.9607,33.07,-25.31,-5.55
1999-01-02 04:01:24.7131,0.38,0.1334,-13.7108,-17.5,-17.03,10.74
1999-01-02 04:01:24.7823,-1.3129,-0.1185,-10.2071,-45.84,16.33,11.33
1999-01-02 04:01:24.8515,-0.4368,0.0957,-6.2737,-27.64,26.53,7.88
1999-01-02 04:01:24.9207,-0.219,-0.0054,-3.9106,-1.69,12.15,1.22
1999-01-02 04:01:24.9899,-1.1603,-0.3124,-6.8895,33.46,-14.21,-4.8
1999-01-02 04:01:25.0592,-1.6157,-0.7468,-14.4301,41.23,-23.57,-6.51
1999-01-02 04:01:25.1284,-1.2722,0.2436,-16.6561,-0.92,13.36,-2.91
1999-01-02 04:01:25.1976,-1.42,-0.5858,-13.3469,-23.65,22.62,2.39
1999-01-02 04:01:25.2668,-1.0963,-0.0024,-8.9247,-41.01,26.99,2.91
1999-01-02 04:01:25.3360,-1.0149,-0.2783,-5.5832,-21.48,19.64,2.79
1999-01-02 04:01:25.4052,-1.3111,0.5326,-4.8609,-1.74,3.88,0.03
1999-01-02 04:01:25.4744,-0.833,0.6307,-8.1958,35.62,-19.74,1.82
1999-01-02 04:01:25.5437,-0.9712,-0.292,-15.0757,25.24,-27.17,-0.19
1999-01-02 04:01:25.6129,-2.4427,-0.45,-16.0182,2.79,-0.8,0.13
1999-01-02 04:01:25.6821,-1.0466,0.0598,-11.4955,-28.06,17.5,3.33
1999-01-02 04:01:25.7513,-1.2405,0.3196,-9.0073,-35.9,26.4,4.4
1999-01-02 04:01:25.8205,-0.3578,0.7115,-4.6347,-15.69,20.09,2.86
1999-01-02 04:01:25.8897,-0.2465,-0.1089,-4.5934,13.9,-1.5,-3.3
1999-01-02 04:01:25.9590,-1.4398,0.0305,-9.3819,40.61,-12.04,-14.03
1999-01-02 04:01:26.0282,-1.2166,-0.243,-15.5694,29.37,-17.69,-11.31
1999-01-02 04:01:26.0974,-1.7073,0.2088,-15.22,-10.96,-5.69,-1.98
1999-01-02 04:01:26.1666,-1.423,-0.0114,-11.8126,-34.06,16.86,4.05
1999-01-02 04:01:26.2358,-1.0646,0.0778,-7.993,-37.88,27.13,4.1
1999-01-02 04:01:26.3050,-0.2507,0.5314,-4.5132,-15.45,19.7,-2.33
1999-01-02 04:01:26.3742,-0.9664,0.4159,-5.3348,17.48,-8.43,-3.61
1999-01-02 04:01:26.4435,-1.8126,0.1825,-10.6517,42.38,-23.35,-0.38
1999-01-02 04:01:26.5127,-1.2884,-0.395,-16.3234,24.46,-15.37,1.02
1999-01-02 04:01:26.5819,-1.2357,0.0443,-14.5527,-19.99,6.47,-0.2
1999-01-02 04:01:26.6511,-1.4859,0.1083,-10.7373,-38.84,25.48,2.86
1999-01-02 04:01:26.7203,-1.2154,0.3836,-7.2432,-39.68,26.33,7.65
1999-01-02 04:01:26.7895,-0.5894,0.836,-4.2888,-10.34,13.49,8.41
1999-01-02 04:01:26.8587,0.1604,0.1161,-4.8022,27.4,-7.73,-3.7
1999-01-02 04:01:26.9280,-2.183,0.1771,-12.4876,49.99,-20.81,-7.66
1999-01-02 04:01:26.9972,-1.7839,-0.0461,-17.5879,19.63,-17.61,-2.59
1999-01-02 04:01:27.0664,-1.0957,0.6427,-13.5295,-21.12,7.96,4.22
1999-01-02 04:01:27.1356,-1.1549,-0.0682,-10.4674,-41.57,18.05,8.04
1999-01-02 04:01:27.2048,-1.1549,0.6397,-6.5203,-37.81,23.36,4.64
1999-01-02 04:01:27.2740,0.3249,0.9587,-3.0908,1.08,11.13,0.9
1999-01-02 04:01:27.3433,-0.9634,0.2968,-6.4742,40.36,-13.25,-1.12
1999-01-02 04:01:27.4125,-1.0155,-0.4727,-14.1548,44.98,-24.84,-2.39
1999-01-02 04:01:27.4817,-1.1513,0.3614,-16.6651,1.19,-18.68,-0.76
1999-01-02 04:01:27.5509,-1.0113,-0.076,-13.0657,-21.99,10.51,3.77
1999-01-02 04:01:27.6201,-1.2848,0.2549,-9.6129,-41.14,26.79,3.39
1999-01-02 04:01:27.6893,-0.5799,1.0197,-5.1756,-24.91,27.82,2.31
1999-01-02 04:01:27.7585,-0.1209,1.1902,-3.3924,12.38,0.42,1.08
1999-01-02 04:01:27.8278,-0.9491,0.3339,-9.1018,48.35,-20.16,-2.2
1999-01-02 04:01:27.8970,-1.5451,-0.8671,-16.5407,33.48,-19.51,-3.88
1999-01-02 04:01:27.9662,-1.867,0.4147,-14.7897,-9.05,-6.56,1.44
1999-01-02 04:01:28.0354,-1.061,0.07,-12.1286,-38.53,25.44,3.02
1999-01-02 04:01:28.1046,-0.5284,0.6936,-7.4723,-40.26,30.92,0.76
1999-01-02 04:01:28.1738,-0.8833,1.1196,-4.1207,-15.59,15.45,1.74
1999-01-02 04:01:28.2430,-1.0712,0.5499,-4.91,24.74,-10.36,0.5
1999-01-02 04:01:28.3123,-0.8677,0.3596,-9.702,51.39,-25.11,0.39
1999-01-02 04:01:28.3815,-1.6552,-0.9024,-19.1018,33.32,-19.02,-5.32
1999-01-02 04:01:28.4507,-2.1309,0.605,-13.5654,-18.58,-4.04,1.16
1999-01-02 04:01:28.5199,-1.1555,0.0904,-11.3159,-41.56,20.76,8.0
1999-01-02 04:01:28.5891,-0.319,0.8288,-5.9488,-38.12,26.31,5.85
1999-01-02 04:01:28.6583,0.1688,0.7528,-3.7251,-4.06,10.37,-0.72
1999-01-02 04:01:28.7276,-0.8922,0.6732,-6.7381,31.88,-3.02,-7.98
1999-01-02 04:01:28.7968,-1.7019,-0.155,-14.4007,48.54,-23.51,-1.43
1999-01-02 04:01:28.8660,-1.5307,0.2854,-17.2761,6.37,-18.08,-1.31
1999-01-02 04:01:28.9352,-0.9676,0.5278,-12.6701,-29.37,9.54,4.69
1999-01-02 04:01:29.0044,-0.8749,0.3842,-9.6224,-41.79,26.38,3.5
1999-01-02 04:01:29.0736,-0.7636,0.9796,-5.415,-28.16,26.36,1.33
1999-01-02 04:01:29.1428,-0.7061,0.7103,-4.5611,11.96,4.6,-1.09
1999-01-02 04:01:29.2121,-0.9347,0.6678,-7.0361,43.02,-20.53,-2.34
1999-01-02 04:01:29.2813,-1.3063,-0.517,-15.3696,45.27,-24.26,-2.85
1999-01-02 04:01:29.3505,-1.6085,0.4404,-17.2408,-0.36,-5.63,-1.44
1999-01-02 04:01:29.4197,-0.8934,0.2459,-12.4852,-35.23,16.9,3.23
1999-01-02 04:01:29.4889,-0.681,0.6211,-8.0097,-45.26,27.18,5.23
1999-01-02 04:01:29.5581,-0.6385,1.0418,-4.8699,-21.99,18.15,4.01
1999-01-02 04:01:29.6273,-0.4787,0.8485,-4.2673,16.0,-2.14,-0.68
1999-01-02 04:01:29.6966,-0.9437,0.2866,-9.717,46.66,-23.02,-0.27
1999-01-02 04:01:29.7658,-1.0071,0.1143,-14.6192,36.27,-22.44,-2.9
1999-01-02 04:01:29.8350,-1.3763,0.1825,-15.7023,-2.76,-4.79,-0.72
1999-01-02 04:01:29.9042,-0.8114,0.4075,-11.8946,-31.36,18.44,1.99
1999-01-02 04:01:29.9734,-1.417,0.5296,-8.6135,-40.82,24.1,6.02
1999-01-02 04:01:30.0426,-0.605,1.2279,-4.7921,-17.21,15.7,6.5
1999-01-02 04:01:30.1119,-0.2765,0.5314,-5.5191,14.9,-2.98,4.03
1999-01-02 04:01:30.1811,-0.8982,0.4356,-7.9301,35.86,-19.99,-2.18
1999-01-02 04:01:30.2503,-0.8719,0.1131,-14.8388,38.26,-19.21,0.15
1999-01-02 04:01:30.3195,-0.7947,0.5086,-15.8214,-4.34,-2.56,1.68
1999-01-02 04:01:30.3887,-0.9072,0.3118,-11.6181,-33.15,20.13,5.05
1999-01-02 04:01:30.4579,-0.7307,0.4464,-7.5585,-36.25,27.58,5.99
1999-01-02 04:01:30.5271,-0.0072,0.6804,-4.6107,-17.26,14.74,2.41
1999-01-02 04:01:30.5964,-0.5601,0.5272,-4.661,22.36,-9.84,-3.38
1999-01-02 04:01:30.6656,-0.6206,0.4243,-9.921,52.74,-21.55,-6.96
1999-01-02 04:01:30.7348,-1.8646,-0.2483,-17.8901,25.88,-20.23,-6.84
1999-01-02 04:01:30.8040,-1.0783,0.3908,-14.0985,-9.38,1.08,4.16
1999-01-02 04:01:30.8732,-0.2932,-0.0945,-10.6116,-37.35,20.17,3.82
1999-01-02 04:01:30.9424,-0.6188,0.4093,-7.0942,-35.53,24.27,-0.6
1999-01-02 04:01:31.0116,-0.544,1.1615,-3.9842,-9.15,9.33,-3.78
1999-01-02 04:01:31.0809,-1.1825,0.9658,-5.1774,35.72,-15.22,-3.61
1999-01-02 04:01:31.1501,-0.8192,-0.2262,-13.0759,50.39,-17.79,-1.54
1999-01-02 04:01:31.2193,-1.1029,-0.4189,-16.2235,21.99,-11.05,-2.7
1999-01-02 04:01:31.2885,-1.4326,0.0898,-14.5138,-16.23,8.97,-0.66
1999-01-02 04:01:31.3577,-1.1095,0.0814,-10.2256,-36.32,24.04,2.95
1999-01-02 04:01:31.4269,-0.3495,0.5721,-6.5143,-35.1,19.83,4.93
1999-01-02 04:01:31.4962,-0.5511,0.7097,-5.339,-10.07,9.16,2.96
1999-01-02 04:01:31.5654,-0.6774,0.6726,-5.0338,23.87,-14.6,-1.33
1999-01-02 04:01:31.6346,-1.0113,0.0993,-12.2471,39.31,-28.36,-1.68
1999-01-02 04:01:31.7038,-1.724,-0.3704,-17.3485,23.45,-15.35,-0.32
1999-01-02 04:01:31.7730,-1.4362,0.6253,-13.7162,-27.73,6.07,2.93
1999-01-02 04:01:31.8422,-0.8964,0.1388,-10.4417,-38.28,24.0,7.06
1999-01-02 04:01:31.9114,-0.8384,0.833,-6.7046,-39.02,27.27,5.5
1999-01-02 04:01:31.9807,-0.4524,1.1196,-3.8149,-5.67,11.92,4.67
1999-01-02 04:01:32.0499,-0.3076,0.5021,-4.9943,35.8,-14.98,-3.37
1999-01-02 04:01:32.1191,-1.5086,0.0551,-13.2069,51.98,-25.66,-4.47
1999-01-02 04:01:32.1883,-1.7779,-0.3842,-17.8093,21.9,-14.45,-4.86
1999-01-02 04:01:32.2575,-1.1418,0.3525,-13.6258,-24.11,11.27,-0.69
1999-01-02 04:01:32.3267,-0.7941,0.2184,-9.5614,-37.19,25.26,2.22
1999-01-02 04:01:32.3959,-0.9407,0.6206,-6.3988,-34.36,27.34,-0.19
1999-01-02 04:01:32.4652,-0.7947,1.0819,-3.162,2.52,6.73,-1.09
1999-01-02 04:01:32.5344,-0.8779,0.7456,-7.6656,41.94,-15.65,-2.61
1999-01-02 04:01:32.6036,-1.6109,0.1807,-14.241,49.66,-23.02,-2.79
1999-01-02 04:01:32.6728,-1.3362,0.4009,-15.4629,12.14,-6.69,-0.75
1999-01-02 04:01:32.7420,-1.3518,0.0491,-14.7251,-14.75,14.49,4.66
1999-01-02 04:01:32.8112,-0.6481,0.4877,-9.8253,-37.93,26.74,6.61
1999-01-02 04:01:32.8805,-0.6786,0.617,-6.6232,-33.12,25.57,5.46
1999-01-02 04:01:32.9497,-0.4614,0.6768,-3.7149,-1.16,9.38,2.64
1999-01-02 04:01:33.0189,-1.0173,-0.0191,-6.3976,38.4,-16.36,-1.23
1999-01-02 04:01:33.0881,-0.6331,0.1915,-14.001,43.31,-21.42,-4.99
1999-01-02 04:01:33.1573,-1.4811,0.2633,-16.4186,16.57,-11.52,-1.16
1999-01-02 04:01:33.2265,-0.7331,0.362,-13.6378,-18.72,10.44,2.71
1999-01-02 04:01:33.2957,-1.262,0.0838,-10.3591,-41.62,28.18,6.26
1999-01-02 04:01:33.3650,-0.1334,0.6936,-5.5347,-27.83,22.2,4.43
1999-01-02 04:01:33.4342,-0.7803,0.3399,-4.1123,2.84,9.53,1.51
1999-01-02 04:01:33.5034,-0.7229,0.7121,-5.7382,41.08,-16.3,-5.85
1999-01-02 04:01:33.5726,-1.5457,-0.8719,-15.6233,54.08,-26.78,-7.26
1999-01-02 04:01:33.6418,-2.9807,0.5984,-17.3581,-5.5,2.33,-6.62
1999-01-02 04:01:33.7110,-1.1926,0.2256,-12.8538,-26.93,22.94,4.03
1999-01-02 04:01:33.7802,-0.3339,0.0916,-9.0749,-37.84,31.37,3.47
1999-01-02 04:01:33.8495,-0.8587,0.5894,-6.5269,-29.23,25.46,3.34
1999-01-02 04:01:33.9187,-0.3794,0.514,-4.3325,4.73,2.14,2.28
1999-01-02 04:01:33.9879,-1.1478,0.2974,-7.5328,39.49,-18.38,-0.77
1999-01-02 04:01:34.0571,-0.2783,0.2453,-12.1549,36.68,-24.23,-3.39
1999-01-02 04:01:34.1263,-3.9286,-0.9275,-19.4232,5.01,26.15,-12.09
1999-01-02 04:01:34.1955,-0.8138,0.0419,-13.3787,-16.97,37.08,-2.15
1999-01-02 04:01:34.2648,-0.9658,0.0568,-10.3794,-45.06,29.74,5.64
1999-01-02 04:01:34.3340,-0.5404,0.9952,-5.1559,-35.53,26.5,6.63
1999-01-02 04:01:34.4032,-0.0245,0.6439,-3.7383,-2.12,8.22,4.33
1999-01-02 04:01:34.4724,-0.8922,0.1646,-8.0001,42.55,-15.83,-0.78
1999-01-02 04:01:34.5416,-1.0622,-0.0473,-14.6341,39.22,-27.4,-3.42
1999-01-02 04:01:34.6108,-1.7198,0.4626,-14.8041,13.51,-9.45,-0.3
1999-01-02 04:01:34.6800,-0.3058,0.1885,-14.0489,-19.85,15.02,3.12
1999-01-02 04:01:34.7493,-1.1555,0.2657,-10.1419,-39.19,19.82,5.92
1999-01-02 04:01:34.8185,-1.0735,0.7737,-7.0708,-34.1,23.75,4.64
1999-01-02 04:01:34.8877,-0.4165,1.1184,-4.0949,-5.64,13.13,2.41
1999-01-02 04:01:34.9569,0.4985,0.3824,-4.6622,32.0,-16.67,-3.39
1999-01-02 04:01:35.0261,-1.8,0.2537,-12.6546,46.45,-17.26,-7.01
1999-01-02 04:01:35.0953,-0.7827,0.2681,-14.2182,27.34,-16.82,0.49
1999-01-02 04:01:35.1645,-1.298,0.0491,-15.7047,-15.78,3.5,0.89
1999-01-02 04:01:35.2338,-0.7995,0.2801,-10.5051,-34.6,23.27,4.16
1999-01-02 04:01:35.3030,-0.8767,0.4883,-8.036,-35.19,20.08,6.84
1999-01-02 04:01:35.3722,-0.985,1.0436,-5.2864,-18.2,18.16,0.89
1999-01-02 04:01:35.4414,-0.0928,1.0682,-4.5162,20.5,-2.54,-2.16
1999-01-02 04:01:35.5106,-0.6397,0.1173,-9.8115,47.98,-20.6,-6.1
1999-01-02 04:01:35.5798,-2.177,-0.5781,-16.9171,36.5,-22.58,0.6
1999-01-02 04:01:35.6491,-0.8473,0.7977,-14.509,-6.23,2.29,-0.18
1999-01-02 04:01:35.7183,-0.5852,0.2693,-12.3177,-25.57,21.47,2.93
1999-01-02 04:01:35.7875,-0.8108,0.4512,-9.3914,-43.48,28.43,1.84
1999-01-02 04:01:35.8567,-0.5912,1.0269,-5.5203,-28.89,20.24,0.78
1999-01-02 04:01:35.9259,-0.3082,0.6541,-4.3857,3.53,-0.75,-0.32
1999-01-02 04:01:35.9951,-0.6295,-0.1101,-8.0444,38.33,-21.24,-8.5
1999-01-02 04:01:36.0643,-1.8437,0.7749,-12.7557,40.7,-34.82,-9.14
1999-01-02 04:01:36.1336,-1.2471,0.8294,-16.7974,19.9,-14.47,-2.28
1999-01-02 04:01:36.2028,-1.0167,0.4967,-14.372,-19.81,11.85,2.33
1999-01-02 04:01:36.2720,-0.9377,0.0365,-10.1819,-37.78,27.06,5.33
1999-01-02 04:01:36.3412,-0.8767,0.3758,-7.0074,-37.95,31.82,2.91
1999-01-02 04:01:36.4104,-0.7085,1.4434,-3.6006,-6.62,14.49,0.83
1999-01-02 04:01:36.4796,-0.3668,0.3854,-5.6107,37.33,-14.52,-0.8
1999-01-02 04:01:36.5488,-1.2836,-0.4955,-12.0627,49.48,-26.02,-0.94
1999-01-02 04:01:36.6181,-0.7181,0.1711,-15.8926,29.25,-18.99,-0.44
1999-01-02 04:01:36.6873,-0.748,0.7247,-15.2385,-16.79,9.28,0.43
1999-01-02 04:01:36.7565,0.067,0.2304,-10.6104,-33.58,25.38,2.5
1999-01-02 04:01:36.8257,-1.3075,0.3573,-6.8943,-36.86,23.7,-0.18
1999-01-02 04:01:36.8949,-1.3249,0.0383,-3.989,-7.62,11.73,3.17
1999-01-02 04:01:36.9641,-0.59,0.076,-5.2211,28.23,-12.04,1.53
1999-01-02 04:01:37.0334,-0.3213,0.0754,-13.2697,44.25,-21.99,-4.35
1999-01-02 04:01:37.1026,-1.4954,0.7414,-17.2803,17.68,-19.17,-0.78
1999-01-02 04:01:37.1718,-0.9587,0.5529,-13.91,-28.66,7.38,4.52
1999-01-02 04:01:37.2410,-0.8964,0.2663,-9.2586,-38.68,26.76,8.98
1999-01-02 04:01:37.3102,-0.3225,0.3327,-5.6322,-27.62,24.83,7.25
1999-01-02 04:01:37.3794,-0.3267,0.0401,-3.8083,8.66,6.68,1.63
1999-01-02 04:01:37.4486,-1.0311,0.3124,-8.4424,41.4,-19.3,-1.29
1999-01-02 04:01:37.5179,-1.1124,0.1053,-14.4187,37.42,-22.85,-4.27
1999-01-02 04:01:37.5871,-1.3716,0.2699,-16.3689,2.38,-4.04,-0.2
1999-01-02 04:01:37.6563,-0.6648,0.1891,-12.5343,-31.2,17.98,4.16
1999-01-02 04:01:37.7255,-0.6636,0.2801,-8.2706,-36.4,26.89,5.33
1999-01-02 04:01:37.7947,-0.2555,0.5523,-4.9925,-23.99,20.89,1.23
1999-01-02 04:01:37.8639,-0.2011,0.4392,-4.0476,17.73,-5.97,-3.51
1999-01-02 04:01:37.9331,-1.3566,0.0551,-9.3316,44.87,-25.08,-7.38
1999-01-02 04:01:38.0024,-1.8335,-0.3602,-17.0996,40.77,-22.15,-7.04
1999-01-02 04:01:38.0716,-1.4882,0.4644,-14.7047,-6.83,0.47,-1.28
1999-01-02 04:01:38.1408,-0.6792,-0.0132,-12.5648,-25.85,23.87,3.89
1999-01-02 04:01:38.2100,-0.3435,0.2663,-8.6775,-42.19,29.6,0.57
1999-01-02 04:01:38.2792,-0.9245,0.6313,-5.2205,-24.63,18.18,1.63
1999-01-02 04:01:38.3484,-1.0879,0.6128,-3.9256,11.55,-1.59,2.97
1999-01-02 04:01:38.4177,-1.4595,0.0227,-9.2478,51.53,-16.77,7.07
1999-01-02 04:01:38.4869,-0.6367,-0.5081,-15.5527,45.83,-18.82,5.01
1999-01-02 04:01:38.5561,-0.5398,0.1801,-15.3558,-2.71,-0.9,2.89
1999-01-02 04:01:38.6253,-0.988,-0.1251,-12.4918,-34.36,17.56,4.62
1999-01-02 04:01:38.6945,-0.748,0.456,-7.6997,-41.18,26.19,5.75
1999-01-02 04:01:38.7637,-0.4739,0.7229,-4.6179,-19.02,15.15,6.99
1999-01-02 04:01:38.8329,0.061,-0.0634,-5.4659,22.12,-3.8,2.22
1999-01-02 04:01:38.9022,-0.9622,0.2412,-10.3016,48.33,-20.17,-3.02
1999-01-02 04:01:38.9714,-0.918,-0.0874,-15.5353,26.0,-14.47,-3.96
1999-01-02 04:01:39.0406,-1.2991,0.4835,-15.0572,-16.72,0.2,0.73
1999-01-02 04:01:39.1098,-0.5194,0.1759,-10.3004,-35.53,26.23,3.84
1999-01-02 04:01:39.1790,-0.31,0.389,-6.9296,-36.04,25.34,5.06
1999-01-02 04:01:39.2482,-0.0832,1.2303,-3.5276,-4.44,11.31,5.43
1999-01-02 04:01:39.3174,-0.6828,0.3614,-5.4916,45.26,-16.64,3.61
1999-01-02 04:01:39.3867,-1.0652,-0.5332,-13.3433,49.64,-27.5,1.3
1999-01-02 04:01:39.4559,-1.3195,-0.1167,-18.154,12.68,-16.24,0.8
1999-01-02 04:01:39.5251,-0.222,0.4315,-13.1943,-28.74,8.09,3.52
1999-01-02 04:01:39.5943,-0.5314,0.0371,-8.7547,-41.09,23.7,3.76
1999-01-02 04:01:39.6635,-0.2621,0.3285,-4.7268,-23.08,19.59,1.39
1999-01-02 04:01:39.7327,-0.8767,-0.0592,-4.2541,13.54,2.48,-0.78
1999-01-02 04:01:39.8020,-0.9323,0.0622,-9.8337,51.17,-20.68,-0.8
1999-01-02 04:01:39.8712,-1.2842,-0.0108,-17.1337,37.78,-21.65,-4.43
1999-01-02 04:01:39.9404,-1.0813,0.751,-15.6622,-11.94,-5.69,1.87
1999-01-02 04:01:40.0096,-0.8497,0.0132,-11.368,-45.36,19.57,5.04
1999-01-02 04:01:40.0788,-0.2465,0.0365,-5.6789,-38.31,23.98,5.93
1999-01-02 04:01:40.1480,-0.6756,0.1622,-3.8077,-5.74,13.4,0.96
1999-01-02 04:01:40.2172,-0.6361,0.1741,-6.0224,44.62,-12.27,-1.29
1999-01-02 04:01:40.2865,-1.3895,-0.5571,-13.9064,38.18,-25.66,-8.65
1999-01-02 04:01:40.3557,-2.6174,0.9772,-13.0681,4.73,-16.31,-4.08
1999-01-02 04:01:40.4249,-3.0663,1.122,-11.0215,-4.31,-12.21,-2.13
1999-01-02 04:01:40.4941,-2.2955,0.1765,-9.0701,-22.29,8.39,-5.38
1999-01-02 04:01:40.5633,-0.8258,0.2597,-9.1485,-3.27,62.42,0.66
1999-01-02 04:01:40.6325,1.0287,0.7013,-9.1264,-9.39,11.03,-14.77
1999-01-02 04:01:40.7017,1.9604,0.3578,-9.6751,14.91,2.31,-4.68
1999-01-02 04:01:40.7710,0.1664,-0.2675,-10.9593,12.76,3.58,-12.56
1999-01-02 04:01:40.8402,-0.1179,0.1035,-10.5105,17.97,-7.74,-6.68
1999-01-02 04:01:40.9094,-0.4512,0.1622,-9.8839,12.2,3.77,-4.93
1999-01-02 04:01:40.9786,0.4219,-2.0543,-7.1217,-10.18,51.19,4.75
1999-01-02 04:01:41.0478,0.0455,-0.0592,-10.1305,0.15,17.58,2.28
1999-01-02 04:01:41.1170,-0.1041,0.1095,-10.085,-2.48,17.41,14.45
1999-01-02 04:01:41.1863,0.6343,-0.5559,-9.3908,-3.8,24.18,-1.73
1999-01-02 04:01:41.2555,-1.3422,-1.6977,-12.1022,-43.38,64.27,1.65
1999-01-02 04:01:41.3247,-0.8013,-0.3854,-9.9809,-7.34,11.58,1.04
1999-01-02 04:01:41.3939,-0.5619,-0.8108,-9.875,-2.8,4.97,1.86
1999-01-02 04:01:41.4631,-0.7528,-0.6361,-10.0533,-5.85,11.94,0.09
1999-01-02 04:01:41.5323,-0.8815,-0.7085,-9.878,-1.46,5.99,-0.61
1999-01-02 04:01:41.6015,-0.6026,-0.7767,-10.1071,-0.37,3.15,0.25
1999-01-02 04:01:41.6708,-0.7875,-0.7115,-10.0156,-0.09,2.47,0.44
1999-01-02 04:01:41.7400,-0.766,-0.7558,-10.0425,0.11,2.39,0.74
1999-01-02 04:01:41.8092,-0.7714,-0.7283,-10.0605,0.03,2.44,0.56
1999-01-02 04:01:41.8784,-0.7594,-0.7372,-10.0443,-0.23,2.45,0.55
1999-01-02 04:01:41.9476,-0.7725,-0.7313,-10.0204,-0.16,2.36,0.65
1999-01-02 04:01:42.0168,-0.7737,-0.7325,-10.0617,0.25,2.16,0.74
1999-01-02 04:01:42.0861,-0.7743,-0.7277,-10.0682,0.02,2.23,0.53
1999-01-02 04:01:42.1553,-0.7696,-0.7307,-10.0246,-0.18,2.04,0.57
1999-01-02 04:01:42.2245,-0.7654,-0.7313,-10.0383,0.16,2.2,0.62
1999-01-02 04:01:42.2937,-0.7845,-0.7253,-10.0676,0.11,2.42,0.5
1999-01-02 04:01:42.3629,-0.7743,-0.7295,-10.0431,0.23,2.28,0.57
1999-01-02 04:01:42.4321,-0.7594,-0.7325,-10.0192,-0.03,2.05,0.59
1999-01-02 04:01:42.5013,-0.7731,-0.7241,-10.0449,-0.08,2.42,0.59
1999-01-02 04:01:42.5706,-0.7737,-0.7271,-10.0694,0.09,2.42,0.59
1999-01-02 04:01:42.6398,-0.751,-0.7289,-10.0288,-0.17,2.12,0.52
1999-01-02 04:01:42.7090,-0.7558,-0.7372,-9.9958,0.01,2.46,0.6
1999-01-02 04:01:42.7782,-0.7785,-0.7253,-10.0473,0.2,2.5,0.6
1999-01-02 04:01:42.8474,-0.769,-0.7313,-10.003,0.15,2.49,0.65
1999-01-02 04:01:42.9166,-0.7546,-0.7378,-10.0162,-0.01,2.45,0.46
1999-01-02 04:01:42.9858,-0.7725,-0.7283,-10.0335,0.04,2.67,0.69
1999-01-02 04:01:43.0551,-0.7791,-0.7283,-10.0581,0.03,2.27,0.62
1999-01-02 04:01:43.1243,-0.7576,-0.7229,-10.0305,0.34,2.54,0.5
1999-01-02 04:01:43.1935,-0.7624,-0.7241,-10.0282,-0.01,2.33,0.64
1999-01-02 04:01:43.2627,-0.7785,-0.7259,-10.0563,0.2,2.35,0.69
1999-01-02 04:01:43.3319,-0.7684,-0.7229,-10.0581,0.08,2.32,0.66
1999-01-02 04:01:43.4011,-0.7528,-0.7289,-10.0204,-0.03,2.46,0.55
1999-01-02 04:01:43.4704,-0.7492,-0.7289,-10.0311,0.0,2.41,0.54
1999-01-02 04:01:43.5396,-0.7821,-0.7283,-10.07,0.24,2.3,0.53
1999-01-02 04:01:43.6088,-0.7624,-0.7229,-10.0467,0.32,2.39,0.63
1999-01-02 04:01:43.6780,-0.7743,-0.7307,-10.0258,0.04,2.23,0.49
1999-01-02 04:01:43.7472,-0.818,-0.6445,-11.1885,-1.31,2.93,0.8
1999-01-02 04:01:43.8174,-0.9132,-0.4374,-9.0803,-1.51,2.51,0.04
1999-01-02 04:01:43.8866,-0.6954,-0.7384,-9.9396,-0.26,2.97,0.51
1999-01-02 04:01:43.9557,-0.9245,-0.6786,-9.9438,0.06,2.11,0.57
1999-01-02 04:01:44.0249,-0.6792,-0.7528,-10.0359,-0.12,2.01,0.49
1999-01-02 04:01:44.0941,-0.751,-0.7372,-10.091,0.18,2.16,0.59
1999-01-02 04:01:44.1632,-0.8336,-0.7187,-10.0054,0.16,2.52,0.68
1999-01-02 04:01:44.2324,-0.6977,-0.7247,-10.0563,0.25,2.53,0.65
1999-01-02 04:01:44.3015,-0.7959,-0.7241,-10.0593,0.14,2.48,0.7
1999-01-02 04:01:44.3707,-0.7708,-0.7295,-10.0449,-0.18,2.38,0.77
1999-01-02 04:01:44.4399,-0.7217,-0.7271,-10.0341,-0.08,2.06,0.5
1999-01-02 04:01:44.5090,-0.8043,-0.7211,-10.0431,0.14,2.12,0.37
1999-01-02 04:01:44.5782,-0.7492,-0.7223,-10.0575,0.08,2.28,0.49
1999-01-02 04:01:44.6473,-0.7696,-0.7211,-10.0347,-0.1,2.2,0.52
1999-01-02 04:01:44.7165,-0.7552,-0.7307,-10.0264,0.11,2.36,0.69
1999-01-02 04:01:44.7856,-0.7648,-0.6924,-10.8641,-0.22,1.91,0.82
1999-01-02 04:01:44.8548,-0.5541,-0.812,-10.1706,2.21,0.88,0.16
1999-01-02 04:01:44.9240,-0.7289,-0.7319,-9.7954,0.78,1.99,0.46
1999-01-02 04:01:44.9931,-0.6732,-0.7348,-10.237,0.58,2.15,0.46
1999-01-02 04:01:45.0623,-0.8007,-0.7115,-9.8038,0.1,2.28,0.58
1999-01-02 04:01:45.1314,-0.7905,-0.7079,-9.9067,0.15,2.38,0.5
1999-01-02 04:01:45.2006,-0.6983,-0.7295,-9.8642,0.48,2.28,0.65
1999-01-02 04:01:45.2698,-0.8222,-0.7325,-10.1065,0.18,2.3,0.64
1999-01-02 04:01:45.3389,-0.7624,-0.7313,-10.0563,0.08,2.44,0.58
1999-01-02 04:01:45.4081,-0.7797,-0.7277,-9.7619,-0.09,2.54,0.54
1999-01-02 04:01:45.4772,-0.7983,-0.7313,-10.4016,0.6,1.98,0.71
1999-01-02 04:01:45.5464,-0.6876,-0.7785,-10.222,0.04,2.7,0.63
1999-01-02 04:01:45.6156,-0.7935,-0.7319,-10.0078,0.38,2.44,0.71
1999-01-02 04:01:45.6847,-0.766,-0.7331,-10.0264,0.15,2.3,0.57
1999-01-02 04:01:45.7539,-0.7714,-0.7331,-10.0988,0.04,2.1,0.52
1999-01-02 04:01:45.8230,-0.7426,-0.7265,-10.0413,-0.11,2.61,0.69
1999-01-02 04:01:45.8922,-0.7546,-0.7271,-10.0958,0.04,2.55,0.66
1999-01-02 04:01:45.9613,-0.7905,-0.7289,-10.0389,-0.01,2.23,0.7
1999-01-02 04:01:46.0305,-0.7426,-0.7277,-10.0407,0.09,2.34,0.52
1999-01-02 04:01:46.0997,-0.7755,-0.7259,-10.0539,0.16,2.4,0.66
1999-01-02 04:01:46.1688,-0.7576,-0.7283,-10.0282,-0.03,2.45,0.7
1999-01-02 04:01:46.2380,-0.7546,-0.7223,-10.0341,0.16,2.46,0.6
1999-01-02 04:01:46.3071,-0.7905,-0.7277,-10.0509,0.18,2.16,0.59
1999-01-02 04:01:46.3763,-0.7468,-0.7217,-10.0527,0.05,2.21,0.61
1999-01-02 04:01:46.4455,-0.7636,-0.7181,-10.0335,0.14,2.37,0.62
1999-01-02 04:01:46.5146,-0.7468,-0.7313,-10.0294,0.18,2.26,0.68
1999-01-02 04:01:46.5838,-0.7737,-0.7265,-10.0479,0.34,2.64,0.67
1999-01-02 04:01:46.6529,-0.7749,-0.7217,-10.0533,0.38,2.35,0.72
1999-01-02 04:01:46.7221,-0.7528,-0.7235,-10.0407,0.08,2.11,0.56
1999-01-02 04:01:46.7912,-0.7696,-0.7301,-10.027,-0.01,2.12,0.46
1999-01-02 04:01:46.8604,-0.7516,-0.7247,-10.2125,0.43,2.0,0.6
1999-01-02 04:01:46.9296,-0.7438,-0.7283,-10.0712,0.1,2.12,0.8
1999-01-02 04:01:46.9987,-0.7642,-0.7259,-10.0036,0.32,2.28,0.73
1999-01-02 04:01:47.0679,-0.7426,-0.7271,-10.0587,0.33,2.32,0.62
1999-01-02 04:01:47.1370,-0.7815,-0.7151,-10.0527,0.08,2.19,0.7
1999-01-02 04:01:47.2062,-0.7522,-0.7151,-10.0413,0.08,2.35,0.71
1999-01-02 04:01:47.2754,-0.7654,-0.7235,-10.0276,0.24,2.47,0.48
1999-01-02 04:01:47.3445,-0.7594,-0.7253,-10.0401,0.15,2.46,0.53
1999-01-02 04:01:47.4137,-0.9461,-0.538,-10.1472,-2.43,3.02,1.13
1999-01-02 04:01:47.4828,-0.7995,-0.6403,-10.0126,-1.23,2.73,0.5
1999-01-02 04:01:47.5520,-0.69,-0.7043,-10.2986,-1.15,2.97,0.69
1999-01-02 04:01:47.6212,-0.7396,-0.6948,-10.0772,-0.6,2.46,0.77
1999-01-02 04:01:47.6903,-0.8438,-0.6942,-10.0647,-0.11,2.58,0.63
1999-01-02 04:01:47.7595,-0.6912,-0.7175,-10.0323,-0.04,2.29,0.61
1999-01-02 04:01:47.8286,-0.7761,-0.7289,-10.0563,-0.17,2.21,0.74
1999-01-02 04:01:47.8978,-0.7827,-0.7157,-10.0539,-0.04,2.2,0.66
1999-01-02 04:01:47.9669,-0.7229,-0.7265,-10.0276,-0.05,2.25,0.52
1999-01-02 04:01:48.0361,-0.7893,-0.7217,-10.0341,0.17,2.35,0.52
1999-01-02 04:01:48.1053,-0.7408,-0.7265,-10.1616,0.39,2.21,0.59
1999-01-02 04:01:48.1744,-0.7498,-0.7408,-10.2083,0.7,2.08,0.54
1999-01-02 04:01:48.2436,-0.8174,-0.7295,-10.1095,0.19,2.11,0.52
1999-01-02 04:01:48.3127,-0.7534,-0.7337,-10.0252,-0.13,2.32,0.64
1999-01-02 04:01:48.3819,-0.7474,-0.7313,-10.0611,-0.14,2.31,0.67
1999-01-02 04:01:48.4511,-0.7761,-0.7265,-10.0671,-0.22,2.25,0.77
1999-01-02 04:01:48.5202,-0.7468,-0.7348,-9.9923,-0.18,2.28,0.59
1999-01-02 04:01:48.5894,-0.7612,-0.7169,-10.0665,0.06,2.12,0.51
1999-01-02 04:01:48.6585,-0.7809,-0.7169,-10.0569,0.29,2.35,0.52
1999-01-02 04:01:48.7277,-0.7468,-0.7241,-10.0305,0.25,2.16,0.6
1999-01-02 04:01:48.7969,-0.7749,-0.7217,-10.0892,0.11,2.37,0.38
1999-01-02 04:01:48.8660,-0.7504,-0.7205,-10.0617,0.25,2.21,0.52
1999-01-02 04:01:48.9352,-0.7702,-0.7205,-10.0682,0.28,2.24,0.53
1999-01-02 04:01:49.0043,-0.739,-0.7277,-9.9719,-0.03,2.27,0.6
1999-01-02 04:01:49.0735,-0.7588,-0.7301,-10.0449,0.06,2.29,0.6
1999-01-02 04:01:49.1426,-0.7582,-0.7193,-10.0234,-0.07,2.48,0.54
1999-01-02 04:01:49.2118,-0.7534,-0.7253,-10.0479,-0.01,2.32,0.67
1999-01-02 04:01:49.2810,-1.7043,-0.0634,-10.5368,-11.72,17.25,-22.4
1999-01-02 04:01:49.3501,-0.2094,-0.8372,-10.6679,-2.96,5.78,-5.95
1999-01-02 04:01:49.4193,-0.6954,-0.5069,-10.3669,-0.1,6.27,-2.03
1999-01-02 04:01:49.4884,-0.76,-0.7809,-10.0653,-0.05,3.6,-0.2
1999-01-02 04:01:49.5576,-3.6533,-1.5301,-9.1617,-0.7,8.87,5.51
1999-01-02 04:01:49.6268,-4.4492,-1.2423,-9.9049,-11.24,24.37,-25.64
1999-01-02 04:01:49.6959,-0.5924,-0.6774,-10.091,4.26,12.96,-13.89
1999-01-02 04:01:49.7651,0.1466,-0.9257,-10.1323,4.55,14.36,-10.04
1999-01-02 04:01:49.8342,-0.4769,-0.8085,-9.9528,-2.88,9.77,-3.73
1999-01-02 04:01:49.9034,-0.3614,-0.4225,-10.0371,-9.33,2.55,1.58
1999-01-02 04:01:49.9726,-0.1574,-0.4309,-10.103,-6.84,7.22,-3.26
1999-01-02 04:01:50.0417,-0.0251,-0.3303,-10.0246,-6.42,2.81,0.73
1999-01-02 04:01:50.1109,-0.1921,-0.6882,-10.1574,-5.09,3.13,2.43
1999-01-02 04:01:50.1800,-0.1215,-0.4015,-10.1227,1.02,0.47,2.67
1999-01-02 04:01:50.2492,-0.3441,-0.5428,-10.1341,-1.67,-1.12,-4.37
1999-01-02 04:01:50.3183,-0.514,-0.2388,-10.3369,-9.08,-9.39,-1.54
1999-01-02 04:01:50.3875,-0.5152,-0.2627,-10.5332,-7.46,-16.38,6.14
1999-01-02 04:01:50.4567,-0.3632,-0.359,-11.0155,-17.56,-6.78,5.26
1999-01-02 04:01:50.5258,-0.8976,0.0886,-10.4195,-2.29,-6.59,3.89
1999-01-02 04:01:50.5950,-1.447,-0.1586,-10.307,0.46,3.23,6.17
1999-01-02 04:01:50.6641,-0.5386,0.1831,-9.8265,-11.3,9.14,7.24
1999-01-02 04:01:50.7333,-0.2298,0.6325,-8.9504,-11.21,6.25,3.44
1999-01-02 04:01:50.8025,0.0371,0.7277,-8.8164,-2.42,6.27,-2.53
1999-01-02 04:01:50.8716,-0.6373,0.0557,-9.7074,4.14,10.48,-0.55
1999-01-02 04:01:50.9408,-1.2303,0.3136,-10.5853,3.91,1.65,1.09
1999-01-02 04:01:51.0099,-0.988,0.1191,-10.7827,3.0,5.62,4.19
1999-01-02 04:01:51.0791,-1.7288,0.4859,-9.924,-4.56,1.62,5.94
1999-01-02 04:01:51.1482,-0.456,0.5362,-9.7128,-4.01,-8.02,14.37
1999-01-02 04:01:51.2174,2.1531,0.2184,-9.942,1.17,2.72,12.0
1999-01-02 04:01:51.2866,2.0699,-0.1735,-10.2861,-3.16,9.26,-4.89
1999-01-02 04:01:51.3557,1.0335,0.167,-10.6032,-1.19,5.15,-16.49
1999-01-02 04:01:51.4249,-0.1586,0.3932,-9.4106,0.44,9.91,-20.13
1999-01-02 04:01:51.4940,-2.1034,0.2681,-9.851,2.95,9.76,-23.33
1999-01-02 04:01:51.5632,-3.9489,0.4398,-9.7714,0.68,-2.53,-8.23
1999-01-02 04:01:51.6324,-2.022,-0.0084,-10.3429,5.52,-0.96,16.0
1999-01-02 04:01:51.7015,0.0981,0.465,-9.8343,5.26,-9.86,21.04
1999-01-02 04:01:51.7707,1.1555,0.3908,-10.1053,-3.0,-4.19,22.48
1999-01-02 04:01:51.8398,2.7988,0.0886,-10.6774,4.59,0.8,7.85
1999-01-02 04:01:51.9090,1.4398,0.0706,-9.7278,2.49,1.27,-10.5
1999-01-02 04:01:51.9782,0.8234,0.2106,-10.5715,1.57,12.53,-21.95
1999-01-02 04:01:52.0473,-2.0406,0.3471,-10.0102,-0.61,7.64,-22.42
1999-01-02 04:01:52.1165,-3.4211,0.3734,-9.9677,-0.75,8.33,-8.39
1999-01-02 04:01:52.1856,-3.5552,0.3285,-10.1921,-3.54,-4.65,14.91
1999-01-02 04:01:52.2548,-0.818,0.301,-9.8738,-7.27,-14.64,29.74
1999-01-02 04:01:52.3239,2.3141,0.2836,-9.8456,0.71,-8.85,30.02
1999-01-02 04:01:52.3931,3.0046,0.0868,-10.5775,-2.58,-4.98,9.34
1999-01-02 04:01:52.4623,1.0382,-0.0305,-10.3064,-1.26,4.91,-12.87
1999-01-02 04:01:52.5314,-0.1095,0.3991,-10.2101,-8.13,11.87,-27.78
1999-01-02 04:01:52.6006,-2.5756,0.6194,-9.4291,-2.07,10.54,-20.06
1999-01-02 04:01:52.6697,-3.8071,0.59,-9.7266,0.63,8.85,-4.83
1999-01-02 04:01:52.7389,-2.2141,0.3465,-9.9228,4.01,5.43,15.52
1999-01-02 04:01:52.8081,-0.9329,0.5894,-9.2245,3.24,-6.88,32.37
1999-01-02 04:01:52.8772,2.3494,0.1466,-11.1358,2.25,-6.95,25.47
1999-01-02 04:01:52.9464,3.0154,0.3207,-10.3256,4.49,-0.29,5.64
1999-01-02 04:01:53.0155,0.6289,-0.2759,-10.6864,6.98,8.32,-16.55
1999-01-02 04:01:53.0847,-1.6384,0.0706,-9.9964,-0.63,5.3,-25.26
1999-01-02 04:01:53.1539,-2.3374,0.4356,-9.9569,-2.52,7.52,-21.29
1999-01-02 04:01:53.2230,-3.4085,1.0598,-9.547,1.57,0.25,0.96
1999-01-02 04:01:53.2922,-1.891,0.3477,-10.9431,1.21,-4.23,21.15
1999-01-02 04:01:53.3613,-0.4291,0.1101,-9.9252,0.12,1.74,25.38
1999-01-02 04:01:53.4305,1.6803,0.0132,-10.1981,-3.11,-4.58,25.1
1999-01-02 04:01:53.4996,2.7856,-0.0646,-10.6314,-1.96,2.31,0.39
1999-01-02 04:01:53.5688,1.5732,0.1179,-9.8839,1.37,8.14,-22.77
1999-01-02 04:01:53.6380,-1.3285,0.2232,-10.3238,-6.28,9.95,-33.01
1999-01-02 04:01:53.7071,-3.7981,0.6397,-9.6697,-3.1,8.76,-20.4
1999-01-02 04:01:53.7763,-3.3313,0.6559,-9.1778,1.03,5.92,7.54
1999-01-02 04:01:53.8454,-1.1454,0.3399,-9.7864,-1.8,-4.63,28.52
1999-01-02 04:01:53.9146,0.8539,0.3776,-10.2184,6.19,-8.2,37.78
1999-01-02 04:01:53.9838,3.0274,-0.0233,-10.9036,2.46,-6.53,19.92
1999-01-02 04:01:54.0529,2.5666,0.0335,-10.1622,-0.8,-1.12,-8.36
1999-01-02 04:01:54.1221,0.3231,-0.067,-9.8696,-1.07,7.51,-30.25
1999-01-02 04:01:54.1912,-2.8712,0.441,-10.219,3.92,12.78,-29.55
1999-01-02 04:01:54.2604,-3.8687,0.5069,-10.4482,-4.5,5.4,-11.29
1999-01-02 04:01:54.3295,-3.5049,0.3076,-9.7289,2.51,0.11,25.55
1999-01-02 04:01:54.3987,0.0311,0.2447,-9.8815,-0.5,-6.57,40.61
1999-01-02 04:01:54.4679,3.8328,0.1688,-10.0826,4.73,-12.84,30.06
1999-01-02 04:01:54.5370,2.9484,0.1287,-10.5111,-1.68,-9.73,-1.73
1999-01-02 04:01:54.6062,0.4775,-0.2047,-10.6702,-0.81,1.05,-27.97
1999-01-02 04:01:54.6753,-2.4972,0.2154,-9.62,-4.2,4.86,-34.21
1999-01-02 04:01:54.7445,-4.2391,0.4883,-9.7595,-3.8,3.6,-12.52
1999-01-02 04:01:54.8137,-3.8173,0.4674,-9.468,2.53,5.8,18.13
1999-01-02 04:01:54.8828,-0.4692,0.0042,-10.389,0.41,-0.85,32.41
1999-01-02 04:01:54.9520,2.5391,0.2483,-9.9928,1.36,-0.9,25.11
1999-01-02 04:01:55.0211,2.8867,0.1993,-9.9821,1.97,1.63,-2.63
1999-01-02 04:01:55.0903,0.6152,-0.082,-10.7804,2.3,1.83,-25.55
1999-01-02 04:01:55.1595,-1.8581,0.1819,-10.2005,-4.58,3.61,-30.82
1999-01-02 04:01:55.2286,-4.4462,0.5176,-9.632,-4.47,5.03,-12.14
1999-01-02 04:01:55.2978,-3.2236,0.2471,-9.9049,1.79,7.9,16.31
1999-01-02 04:01:55.3669,-1.2297,0.2657,-9.3681,0.81,-1.3,31.76
1999-01-02 04:01:55.4361,3.3463,0.2358,-10.7816,1.85,-5.49,24.77
1999-01-02 04:01:55.5052,3.22,-0.0431,-10.8474,1.45,1.16,-6.13
1999-01-02 04:01:55.5744,0.2944,-0.4811,-10.4279,-0.36,9.84,-30.52
1999-01-02 04:01:55.6436,-2.8173,0.1634,-9.249,-2.23,11.64,-34.4
1999-01-02 04:01:55.7127,-4.4893,0.5667,-9.4435,2.49,8.23,-9.35
1999-01-02 04:01:55.7819,-2.7072,0.1885,-10.4297,2.37,1.39,21.94
1999-01-02 04:01:55.8510,-0.1927,-0.0066,-9.8426,2.76,-5.79,38.96
1999-01-02 04:01:55.9202,3.9699,0.2388,-10.6565,-0.66,-5.26,22.79
1999-01-02 04:01:55.9894,2.2584,0.1496,-10.3082,1.64,-0.04,-5.15
1999-01-02 04:01:56.0585,-0.0431,-0.0323,-10.6086,-3.67,6.69,-26.95
1999-01-02 04:01:56.1277,-2.7629,0.5045,-9.4531,-5.9,6.96,-26.85
1999-01-02 04:01:56.1968,-4.0632,0.4674,-9.5722,-1.84,0.92,-2.72
1999-01-02 04:01:56.2660,-3.4821,0.3513,-10.179,2.84,1.5,26.28
1999-01-02 04:01:56.3352,1.426,0.2717,-10.2334,2.81,-7.13,38.18
1999-01-02 04:01:56.4043,2.7072,0.0144,-10.5374,4.8,-2.82,23.94
1999-01-02 04:01:56.4735,2.782,-0.1604,-10.459,-0.78,4.09,-6.18
1999-01-02 04:01:56.5426,-0.2436,-0.0814,-10.4889,-2.08,6.61,-27.58
1999-01-02 04:01:56.6118,-2.4798,0.3884,-9.4082,-2.84,6.55,-29.18
1999-01-02 04:01:56.6809,-4.2649,0.6301,-9.6212,3.97,13.48,-9.06
1999-01-02 04:01:56.7501,-3.3625,0.371,-10.0,3.43,1.56,20.07
1999-01-02 04:01:56.8193,0.2926,-0.0114,-10.1425,4.99,-10.45,37.43
1999-01-02 04:01:56.8884,2.0454,-0.0174,-10.7965,1.72,-7.37,30.0
1999-01-02 04:01:56.9576,3.7538,0.0766,-10.304,-3.4,2.1,-1.31
1999-01-02 04:01:57.0267,0.7624,-0.2202,-10.3202,1.55,9.28,-27.33
1999-01-02 04:01:57.0959,-1.9813,-0.0221,-10.1335,0.79,8.48,-35.03
1999-01-02 04:01:57.1651,-4.8082,0.4446,-9.5692,0.81,9.12,-15.04
1999-01-02 04:01:57.2342,-3.8759,0.3459,-9.6679,4.24,7.16,16.79
1999-01-02 04:01:57.3034,-0.7815,0.0957,-9.7882,2.27,-3.99,42.69
1999-01-02 04:01:57.3725,2.9544,-0.2226,-10.541,5.52,-1.14,34.23
1999-01-02 04:01:57.4417,4.6736,-0.0287,-10.4446,-1.83,-4.09,-0.78
1999-01-02 04:01:57.5108,0.2872,-0.6164,-10.8707,2.08,0.65,-25.8
1999-01-02 04:01:57.5800,-2.1489,0.3453,-9.5608,-9.88,7.81,-33.52
1999-01-02 04:01:57.6492,-4.3887,0.5374,-9.3442,1.04,8.29,-12.6
1999-01-02 04:01:57.7183,-2.7581,0.4787,-9.0103,7.46,13.3,13.24
1999-01-02 04:01:57.7875,-0.0838,-0.1233,-10.2161,7.71,-8.66,35.58
1999-01-02 04:01:57.8566,2.195,0.0868,-10.9527,-2.07,-7.32,23.44
1999-01-02 04:01:57.9258,3.466,-0.4267,-10.5733,-1.37,0.4,0.55
1999-01-02 04:01:57.9950,1.3464,-0.1879,-9.7966,-0.18,2.91,-27.56
1999-01-02 04:01:58.0641,-1.8287,-0.1137,-10.1048,-3.69,15.7,-41.19
1999-01-02 04:01:58.1333,-4.6161,0.6493,-9.8229,-2.55,4.57,-17.73
1999-01-02 04:01:58.2024,-3.6395,0.4141,-9.1658,-1.35,0.84,14.91
1999-01-02 04:01:58.2716,-0.4237,0.012,-10.2472,6.37,-5.52,35.22
1999-01-02 04:01:58.3408,2.791,-0.0162,-10.8139,-1.61,-13.2,29.38
1999-01-02 04:01:58.4099,3.3098,-0.2777,-10.3812,1.08,-5.36,3.66
1999-01-02 04:01:58.4791,0.8025,-0.3369,-10.3758,-3.35,3.25,-26.29
1999-01-02 04:01:58.5482,-1.9011,0.2651,-10.1574,-1.3,10.76,-37.14
1999-01-02 04:01:58.6174,-4.3857,0.6385,-9.9121,-1.97,8.8,-21.3
1999-01-02 04:01:58.6865,-4.0967,0.6924,-8.8852,-1.71,-0.66,10.57
1999-01-02 04:01:58.7557,-1.6325,0.0461,-10.1825,1.05,-5.25,34.11
1999-01-02 04:01:58.8249,3.0016,-0.2944,-10.5075,9.2,-4.9,32.11
1999-01-02 04:01:58.8940,3.5653,-0.1634,-10.3489,-6.26,-2.41,2.72
1999-01-02 04:01:58.9632,1.5116,-0.2531,-10.0736,-4.05,5.22,-26.23
1999-01-02 04:01:59.0323,-1.4003,0.1502,-9.6536,-2.99,8.31,-40.24
1999-01-02 04:01:59.1015,-3.91,0.4979,-9.6033,3.26,6.06,-26.08
1999-01-02 04:01:59.1707,-4.8381,0.1047,-10.2747,6.96,4.86,9.46
1999-01-02 04:01:59.2398,-1.4667,0.0868,-9.2047,-3.31,-0.15,36.67
1999-01-02 04:01:59.3090,1.4739,-0.3112,-10.4967,1.04,-1.2,43.01
1999-01-02 04:01:59.3781,4.5599,-0.012,-10.3621,3.05,-2.02,14.94
1999-01-02 04:01:59.4473,2.2698,-0.4835,-10.0994,2.23,4.03,-22.41
1999-01-02 04:01:59.5165,-0.3417,-0.459,-9.778,2.66,15.85,-44.96
1999-01-02 04:01:59.5856,-4.1344,0.2729,-9.8684,0.69,4.12,-31.34
1999-01-02 04:01:59.6548,-5.4491,0.2483,-10.632,2.04,4.75,7.98
1999-01-02 04:01:59.7239,-1.7264,0.152,-9.404,-0.84,3.32,36.98
1999-01-02 04:01:59.7931,1.4464,-0.2154,-10.176,-4.57,-7.08,44.3
1999-01-02 04:01:59.8622,3.9567,-0.1197,-10.5673,-0.16,-3.03,16.1
1999-01-02 04:01:59.9314,2.9795,-0.4315,-10.547,2.83,2.88,-21.52
1999-01-02 04:02:00.0006,-0.8773,-0.1394,-10.7139,2.85,8.27,-43.92
1999-01-02 04:02:00.0697,-4.3361,0.3375,-9.6781,0.45,5.93,-32.07
1999-01-02 04:02:00.1389,-4.8549,0.3902,-9.9994,2.59,9.74,2.53
1999-01-02 04:02:00.2080,-1.9771,0.389,-9.4178,-1.57,-3.16,35.53
1999-01-02 04:02:00.2772,1.0209,-0.0951,-10.7056,0.26,-5.97,41.95
1999-01-02 04:02:00.3464,3.7054,-0.2065,-10.325,-5.55,-5.04,24.31
1999-01-02 04:02:00.4155,2.7198,-0.3955,-10.3687,1.11,2.73,-11.32
1999-01-02 04:02:00.4847,0.1209,-0.0766,-10.6493,-4.56,8.23,-40.77
1999-01-02 04:02:00.5538,-3.6395,0.5655,-9.3226,-5.65,10.2,-40.93
1999-01-02 04:02:00.6230,-4.9554,0.614,-9.2083,-2.76,5.67,-10.39
1999-01-02 04:02:00.6921,-3.2254,0.4829,-9.5195,3.05,1.71,24.86
1999-01-02 04:02:00.7613,0.3058,0.2842,-10.3268,1.62,-9.6,37.92
1999-01-02 04:02:00.8305,2.4487,-0.2304,-10.4464,3.97,-3.0,28.67
1999-01-02 04:02:00.8996,3.5091,-0.2292,-10.3106,1.55,1.91,-0.18
1999-01-02 04:02:00.9688,0.7163,-0.4793,-11.1861,-2.68,4.73,-27.75
1999-01-02 04:02:01.0379,-1.8742,0.2112,-9.62,-2.05,8.77,-34.54
1999-01-02 04:02:01.1071,-4.0758,0.4823,-9.626,-0.6,6.26,-19.71
1999-01-02 04:02:01.1763,-3.6832,0.1293,-9.7619,-0.42,2.76,10.74
1999-01-02 04:02:01.2454,-1.9616,0.2759,-9.3621,5.93,-3.77,36.87
1999-01-02 04:02:01.3146,2.5797,0.0305,-10.6691,-1.51,-8.18,32.86
1999-01-02 04:02:01.3837,3.4169,0.1837,-9.8606,0.87,-8.58,8.12
1999-01-02 04:02:01.4529,0.8079,-0.4147,-10.8151,2.19,4.29,-20.82
1999-01-02 04:02:01.5221,-1.0173,-0.1293,-10.5524,-0.71,7.23,-32.71
1999-01-02 04:02:01.5912,-4.5024,0.3303,-10.0545,-5.44,10.63,-24.0
1999-01-02 04:02:01.6604,-4.3044,0.4428,-8.668,6.78,10.25,10.69
1999-01-02 04:02:01.7295,-1.9,0.2424,-9.6416,2.62,7.85,29.16
1999-01-02 04:02:01.7987,1.7839,0.146,-9.6338,6.19,-5.12,37.99
1999-01-02 04:02:01.8678,3.5869,-0.818,-11.982,6.31,-6.02,14.13
1999-01-02 04:02:01.9370,1.9006,-0.6738,-10.7869,-3.7,7.94,-18.15
1999-01-02 04:02:02.0062,0.1592,-0.1849,-10.1317,-6.45,14.54,-39.83
1999-01-02 04:02:02.0753,-2.9364,0.4614,-9.5919,-5.64,12.8,-39.15
1999-01-02 04:02:02.1445,-4.0835,0.9216,-9.1473,1.53,4.63,-14.67
1999-01-02 04:02:02.2136,-3.5127,0.6325,-9.4477,-1.5,-3.98,18.96
1999-01-02 04:02:02.2828,-0.3866,0.2657,-9.9767,4.8,-10.11,37.68
1999-01-02 04:02:02.3520,2.2734,-0.5846,-10.8073,2.98,-11.17,35.15
1999-01-02 04:02:02.4211,3.405,-0.6379,-10.5033,0.13,-1.77,5.67
1999-01-02 04:02:02.4903,1.2112,-0.3692,-10.2825,-4.55,5.22,-24.05
1999-01-02 04:02:02.5594,-1.514,0.4087,-9.7631,-0.91,7.64,-35.4
1999-01-02 04:02:02.6286,-4.3678,0.4877,-9.7864,-0.62,4.5,-19.28
1999-01-02 04:02:02.6978,-3.4935,0.5242,-9.483,1.58,-1.02,10.59
1999-01-02 04:02:02.7669,-1.9969,-0.0425,-10.2292,-1.94,-5.47,31.2
1999-01-02 04:02:02.8361,0.6325,0.0377,-9.8881,2.66,-10.7,40.05
1999-01-02 04:02:02.9052,3.6659,-0.5051,-10.9736,-1.03,-9.96,18.33
1999-01-02 04:02:02.9744,1.0113,-0.0616,-9.7786,-2.82,1.44,-14.52
1999-01-02 04:02:03.0435,-2.1417,-0.1783,-10.9443,-2.16,11.42,-30.23
1999-01-02 04:02:03.1127,-4.2068,1.3554,-9.3424,-10.87,15.76,-17.16
1999-01-02 04:02:03.1819,-3.5276,0.6235,-9.2359,-2.77,10.72,7.88
1999-01-02 04:02:03.2510,-1.4464,0.234,-9.3125,0.36,2.58,26.32
1999-01-02 04:02:03.3202,2.2566,-0.0048,-10.2933,5.17,-3.1,28.86
1999-01-02 04:02:03.3893,3.3762,-0.4261,-10.5637,-0.17,-2.4,4.59
1999-01-02 04:02:03.4585,0.9802,-0.4524,-10.5829,-1.67,6.51,-20.51
1999-01-02 04:02:03.5277,-0.9114,-0.1227,-10.082,-8.18,13.62,-30.54
1999-01-02 04:02:03.5968,-3.6766,0.7594,-9.6823,-6.93,16.41,-27.26
1999-01-02 04:02:03.6660,-4.1949,0.8294,-9.3693,2.65,7.39,0.81
1999-01-02 04:02:03.7351,-2.6839,0.3614,-10.404,6.64,0.94,28.75
1999-01-02 04:02:03.8043,1.0903,-0.1969,-10.5703,2.56,-13.62,39.59
1999-01-02 04:02:03.8734,3.2278,-0.2088,-10.307,-1.46,-11.45,18.74
1999-01-02 04:02:03.9426,2.5241,-0.7289,-10.4991,0.94,5.8,-15.03
1999-01-02 04:02:04.0118,-0.7528,-0.1813,-10.3327,-3.54,3.8,-30.21
1999-01-02 04:02:04.0824,-3.174,0.4237,-9.8971,0.3,4.2,-23.76
1999-01-02 04:02:04.1516,-4.3498,0.7271,-9.945,-2.33,7.28,-6.28
1999-01-02 04:02:04.2208,-3.1087,0.14,-10.2262,3.17,8.68,21.89
1999-01-02 04:02:04.2900,-0.4793,0.0449,-9.3083,4.59,-8.15,46.94
1999-01-02 04:02:04.3592,3.4576,-0.2256,-10.8336,4.31,-7.33,30.57
1999-01-02 04:02:04.4284,3.8232,-0.3369,-10.5984,3.92,-3.44,-0.95
1999-01-02 04:02:04.4976,0.9455,-0.4829,-10.8935,-4.38,3.74,-31.86
1999-01-02 04:02:04.5667,-2.4212,0.1478,-9.5668,-4.02,6.34,-38.19
1999-01-02 04:02:04.6359,-5.0967,0.4608,-9.3394,-3.04,7.4,-16.98
1999-01-02 04:02:04.7051,-3.627,0.3818,-9.7266,-0.73,1.95,15.85
1999-01-02 04:02:04.7743,-0.018,0.1065,-9.6577,2.68,-3.66,33.2
1999-01-02 04:02:04.8435,2.9496,-0.2047,-10.6882,2.69,-9.35,25.61
1999-01-02 04:02:04.9127,2.4391,-0.4757,-10.3196,-2.22,1.96,-7.7
1999-01-02 04:02:04.9819,-0.1783,-0.4279,-11.2022,5.13,14.18,-29.26
1999-01-02 04:02:05.0511,-3.5324,0.3872,-9.9611,-0.85,11.53,-28.54
1999-01-02 04:02:05.1202,-4.5539,0.6235,-9.4956,-4.08,6.86,-3.04
1999-01-02 04:02:05.1894,-2.5031,0.3094,-10.0581,-0.33,5.95,23.84
1999-01-02 04:02:05.2586,0.1299,0.0479,-9.939,0.03,-5.76,39.61
1999-01-02 04:02:05.3278,3.67,-0.1125,-10.6679,1.19,-0.38,17.89
1999-01-02 04:02:05.3970,2.0717,-0.2549,-10.3375,-0.88,5.96,-11.19
1999-01-02 04:02:05.4662,-0.301,-0.2801,-11.1268,-3.29,12.44,-31.75
1999-01-02 04:02:05.5354,-2.995,0.3465,-9.0144,-4.67,10.61,-28.74
1999-01-02 04:02:05.6046,-4.3223,0.4327,-9.1898,2.52,8.18,0.69
1999-01-02 04:02:05.6737,-2.5893,0.3854,-9.6763,6.05,7.37,29.38
1999-01-02 04:02:05.7429,0.7917,0.0892,-10.4967,4.16,-8.93,41.26
1999-01-02 04:02:05.8121,3.6587,-0.1412,-10.7893,-0.73,-7.3,20.33
1999-01-02 04:02:05.8813,2.0208,-0.5595,-10.7109,-3.08,6.26,-12.6
1999-01-02 04:02:05.9505,-0.4536,-0.4225,-10.4153,-2.8,10.33,-34.32
1999-01-02 04:02:06.0197,-3.2374,0.5236,-9.5476,-6.17,7.68,-30.76
1999-01-02 04:02:06.0889,-5.3635,0.7342,-9.4052,-0.73,7.53,3.24
1999-01-02 04:02:06.1581,-1.5397,0.2531,-9.714,9.49,0.91,38.53
1999-01-02 04:02:06.2272,2.3799,-0.3584,-10.7851,2.49,-4.35,33.22
1999-01-02 04:02:06.2964,4.0123,-0.441,-10.4644,-1.72,-1.98,9.03
1999-01-02 04:02:06.3656,2.0466,-0.5667,-9.8432,-0.59,1.23,-26.36
1999-01-02 04:02:06.4348,-1.4888,-0.0916,-10.6726,-1.73,5.67,-41.56
1999-01-02 04:02:06.5040,-4.5066,0.4536,-9.4058,-0.89,7.63,-28.0
