dateTime_UTC,ax,ay,az,gx,gy,gz
1999-01-15 09:29:33.1309,3.2781,5.1786,6.6842,4.44,10.84,-13.47
1999-01-15 09:29:33.1999,3.8579,5.9117,6.7297,11.44,26.7,3.67
1999-01-15 09:29:33.2689,2.8185,5.7699,7.1875,-5.08,6.07,-3.13
1999-01-15 09:29:33.3379,3.5258,5.5149,6.908,-4.18,1.65,3.19
1999-01-15 09:29:33.4068,3.6533,5.5544,7.1432,-7.14,0.39,1.86
1999-01-15 09:29:33.4758,3.013,5.2367,6.4874,-9.49,-1.51,1.53
1999-01-15 09:29:33.5448,3.5743,6.3348,6.5251,2.52,3.16,-5.56
1999-01-15 09:29:33.6138,2.7323,5.5293,7.8679,5.17,-0.38,-7.73
1999-01-15 09:29:33.6828,3.4732,5.5,6.8793,4.12,2.41,-0.84
1999-01-15 09:29:33.7518,3.5581,5.4395,7.2061,-8.01,-0.06,0.41
1999-01-15 09:29:33.8208,3.0381,5.1786,7.1971,-11.78,-4.36,9.28
1999-01-15 09:29:33.8898,3.4468,4.7705,7.1522,-17.58,5.01,-6.06
1999-01-15 09:29:33.9588,3.8226,3.9806,6.8039,-7.47,25.1,6.39
1999-01-15 09:29:34.0278,3.3038,4.6742,7.5154,-22.03,23.98,3.95
1999-01-15 09:29:34.0968,2.4499,4.1919,8.343,-31.95,20.06,5.2
1999-01-15 09:29:34.1657,2.9561,3.8161,8.9139,-49.15,3.61,14.02
1999-01-15 09:29:34.2347,3.9381,3.6683,7.8529,-52.94,20.06,8.79
1999-01-15 09:29:34.3037,2.5157,2.8766,8.6512,-59.85,30.09,0.72
1999-01-15 09:29:34.3727,2.4349,2.4954,9.3454,-51.0,21.45,2.23
1999-01-15 09:29:34.4417,1.7922,1.9819,9.1437,-38.08,9.76,3.67
1999-01-15 09:29:34.5107,2.6085,1.6157,8.6973,-34.4,13.06,4.12
1999-01-15 09:29:34.5797,2.1537,0.9587,8.3718,-26.92,-5.16,2.11
1999-01-15 09:29:34.6487,2.1579,0.362,9.2107,-34.54,-24.51,-5.85
1999-01-15 09:29:34.7177,2.8532,0.2824,9.9737,-37.95,-42.37,-13.22
1999-01-15 09:29:34.7867,2.627,-0.0191,9.6105,-32.37,-26.6,-15.65
1999-01-15 09:29:34.8557,3.688,0.0275,9.2089,-34.15,-8.1,-12.47
1999-01-15 09:29:34.9247,3.1464,-0.7157,9.8534,-15.73,-4.88,-7.41
1999-01-15 09:29:34.9936,3.3319,-0.6726,8.9049,-9.2,-1.17,-3.05
1999-01-15 09:29:35.0626,3.0112,-0.8114,9.1186,-6.07,1.66,3.92
1999-01-15 09:29:35.1316,3.5929,-0.3477,8.7158,-6.65,6.71,0.25
1999-01-15 09:29:35.2006,3.4121,-0.9287,9.6847,-8.47,11.31,-1.53
1999-01-15 09:29:35.2696,3.1099,-0.9096,8.9618,-3.32,11.98,-2.02
1999-01-15 09:29:35.3386,3.2153,-1.1555,9.0504,-6.67,11.96,-0.32
1999-01-15 09:29:35.4076,2.648,-1.2758,9.1413,-6.84,9.54,0.08
1999-01-15 09:29:35.4766,2.9125,-1.2513,9.1198,-9.62,11.38,0.45
1999-01-15 09:29:35.5456,2.7078,-1.3321,9.1581,-4.1,8.99,5.21
1999-01-15 09:29:35.6146,2.852,-1.2351,8.9367,-6.57,7.04,4.9
1999-01-15 09:29:35.6836,2.7012,-1.4817,9.2484,-0.87,4.9,5.85
1999-01-15 09:29:35.7526,2.7419,-1.3739,9.0408,-1.93,2.85,3.42
1999-01-15 09:29:35.8215,2.42,-1.5995,9.0833,-1.47,3.72,2.03
1999-01-15 09:29:35.8905,2.4912,-1.6181,9.1461,2.8,3.0,2.22
1999-01-15 09:29:35.9595,2.6115,-1.5858,9.264,4.36,1.85,3.96
1999-01-15 09:29:36.0285,2.7898,-1.3165,9.4118,7.66,5.36,5.72
1999-01-15 09:29:36.0975,2.627,-1.1166,8.9181,9.54,5.3,3.46
1999-01-15 09:29:36.1665,2.7629,-0.9634,9.188,13.78,5.53,9.04
1999-01-15 09:29:36.2355,2.3105,-1.2608,9.2897,37.19,-7.82,4.93
1999-01-15 09:29:36.3045,2.4433,-1.2644,10.088,18.1,-20.76,22.33
1999-01-15 09:29:36.3735,3.1907,0.1711,8.6153,20.13,-7.25,42.46
1999-01-15 09:29:36.4425,3.0441,-0.0928,9.0623,21.77,-0.16,27.83
1999-01-15 09:29:36.5115,2.7078,-0.1909,9.2766,4.82,16.9,20.87
1999-01-15 09:29:36.5805,2.3464,-0.4219,8.7996,0.37,11.57,-1.93
1999-01-15 09:29:36.6494,2.4391,-0.4949,9.8067,-5.14,7.54,-19.98
1999-01-15 09:29:36.7184,2.7084,-0.2202,9.2855,-10.67,8.36,-12.91
1999-01-15 09:29:36.7874,2.1974,-0.5535,9.2981,-9.16,4.82,-10.44
1999-01-15 09:29:36.8564,2.3033,-0.4871,9.1401,-5.2,3.92,-4.91
1999-01-15 09:29:36.9254,2.5498,-0.5242,9.5153,-3.21,-2.42,-7.45
1999-01-15 09:29:36.9944,2.8071,-0.1293,9.0934,-3.12,-9.86,-15.37
1999-01-15 09:29:37.0634,2.7168,-0.3782,8.6859,-20.36,-12.16,-32.78
1999-01-15 09:29:37.1324,2.4972,-1.2638,9.4902,-19.78,1.89,-30.97
1999-01-15 09:29:37.2014,2.8706,-1.5595,9.3388,-33.02,-3.23,-39.93
1999-01-15 09:29:37.2704,2.9005,-1.5924,9.5141,-19.09,-8.63,-31.15
1999-01-15 09:29:37.3394,3.25,-1.788,9.352,-27.51,-6.62,-15.78
1999-01-15 09:29:37.4083,2.6719,-2.35,9.1323,-8.97,-4.9,1.24
1999-01-15 09:29:37.4773,3.5629,-0.9958,8.6871,21.27,-13.31,4.3
1999-01-15 09:29:37.5463,4.0835,-1.1023,8.8804,15.72,-8.44,8.44
1999-01-15 09:29:37.6153,4.4653,-2.0406,8.3023,-11.82,-2.37,12.05
1999-01-15 09:29:37.6843,3.1644,-2.4367,9.5554,-21.16,13.26,6.79
1999-01-15 09:29:37.7533,4.2332,-2.3009,8.2467,-32.01,-1.62,-2.64
1999-01-15 09:29:37.8223,4.8375,-3.831,7.288,-86.14,-24.75,-18.17
1999-01-15 09:29:37.8913,3.3098,-4.9112,6.8913,-110.79,16.43,-9.37
1999-01-15 09:29:37.9603,3.6078,-4.0076,7.0331,-46.59,-24.76,-45.35
1999-01-15 09:29:38.0293,4.0907,-5.4641,5.7597,-77.51,-52.97,-41.4
1999-01-15 09:29:38.0983,8.0331,-7.0074,6.2306,-95.19,-50.6,-32.11
1999-01-15 09:29:38.1673,7.1031,-7.0505,-3.9908,-177.82,-68.34,14.61
1999-01-15 09:29:38.2362,8.3508,-7.1372,4.5024,-122.61,-59.12,11.15
1999-01-15 09:29:38.3052,6.5179,-6.9793,2.5785,-71.25,-84.8,-29.06
1999-01-15 09:29:38.3742,7.5902,-6.4742,-0.5212,-48.26,-91.8,16.51
1999-01-15 09:29:38.4432,5.6502,-7.4502,-0.4686,-29.9,-70.36,-39.73
1999-01-15 09:29:38.5122,7.3138,-6.0733,-2.1357,-32.07,-77.27,-29.46
1999-01-15 09:29:38.5812,11.0185,-2.1489,-4.454,-26.92,-77.58,-19.86
1999-01-15 09:29:38.6502,5.6562,-8.8607,2.6234,42.61,-73.87,46.67
1999-01-15 09:29:38.7192,5.2068,-6.0374,-2.9962,-28.71,-70.74,24.25
1999-01-15 09:29:38.7882,7.829,-4.3349,-4.3121,-57.15,-72.13,19.83
1999-01-15 09:29:38.8572,5.7872,-6.783,-6.3533,-54.85,-36.72,10.51
1999-01-15 09:29:38.9262,5.4653,-6.2995,-4.7209,-40.16,-63.16,-23.3
1999-01-15 09:29:38.9952,5.1134,-4.5563,-7.0505,-22.34,-63.66,-42.46
1999-01-15 09:29:39.0641,6.9242,-5.7956,-6.032,-21.28,-72.85,-28.64
1999-01-15 09:29:39.1331,3.4271,-5.2133,-9.1712,-33.3,-80.99,-38.61
1999-01-15 09:29:39.2021,9.6176,-4.0309,-9.3543,-38.01,-102.26,-37.89
1999-01-15 09:29:39.2711,4.962,-4.4677,-8.5932,-2.13,-58.34,-25.93
1999-01-15 09:29:39.3401,6.2887,-2.9801,-10.0904,73.12,-28.5,0.06
1999-01-15 09:29:39.4091,1.0466,-4.3648,-7.5106,27.36,-53.03,-63.66
1999-01-15 09:29:39.4781,2.6492,-3.1249,-8.3879,18.97,-7.28,-59.38
1999-01-15 09:29:39.5471,3.8125,-3.764,-7.9828,-34.25,44.14,-48.82
1999-01-15 09:29:39.6161,4.2858,-2.2369,-8.4633,-5.64,114.42,4.71
1999-01-15 09:29:39.6851,4.5575,-3.0746,-3.8137,67.26,100.22,103.79
1999-01-15 09:29:39.7541,4.8471,-6.5083,-9.2317,8.12,-39.07,63.56
1999-01-15 09:29:39.8231,4.3355,-3.6581,-10.003,63.25,-9.42,31.38
1999-01-15 09:29:39.8920,3.7646,-4.8806,-6.9338,50.71,-21.85,-75.98
1999-01-15 09:29:39.9610,4.5072,-4.3307,-8.2443,-88.71,-101.9,-60.03
1999-01-15 09:29:40.0300,5.0434,-3.3092,-10.4195,-23.58,-32.45,-32.75
1999-01-15 09:29:40.0990,3.6222,-3.4427,-7.689,-3.45,-3.53,-6.83
1999-01-15 09:29:40.1680,3.2141,-3.0268,-9.4285,-7.1,-17.86,5.96
1999-01-15 09:29:40.2370,2.1639,-1.9077,-9.0138,16.57,-8.72,-10.76
1999-01-15 09:29:40.3060,4.7651,-5.0991,-10.1083,73.26,-20.2,10.9
1999-01-15 09:29:40.3750,6.3228,-4.3696,-5.874,75.0,20.18,36.57
1999-01-15 09:29:40.4440,0.4273,-5.1697,-5.202,63.25,83.2,10.89
1999-01-15 09:29:40.5130,1.8599,-5.0973,-5.6209,84.19,138.31,20.13
1999-01-15 09:29:40.5820,4.8334,-7.2485,-5.7902,73.65,113.52,64.1
1999-01-15 09:29:40.6509,3.0531,-6.7758,-2.8454,88.69,106.94,81.39
1999-01-15 09:29:40.7199,4.5479,-10.9689,-1.8976,140.0,102.43,114.21
1999-01-15 09:29:40.7889,2.0053,-8.9265,0.3961,131.52,108.36,119.37
1999-01-15 09:29:40.8579,1.1166,-10.7732,2.0579,90.73,81.83,102.87
1999-01-15 09:29:40.9269,-0.7743,-9.5566,2.7718,80.92,64.16,77.81
1999-01-15 09:29:40.9959,-0.6954,-9.0204,3.5498,75.94,43.88,35.89
1999-01-15 09:29:41.0649,-0.4805,-10.2663,2.7958,57.2,16.87,42.46
1999-01-15 09:29:41.1339,-1.204,-9.7702,6.5957,83.54,36.57,23.38
1999-01-15 09:29:41.2029,-0.675,-9.9623,5.506,86.46,18.22,8.61
1999-01-15 09:29:41.2719,-0.5452,-8.3293,5.6927,69.93,31.69,18.85
1999-01-15 09:29:41.3409,-3.329,-6.2743,5.9805,66.41,48.9,39.21
1999-01-15 09:29:41.4099,-0.979,-7.4059,6.8853,51.93,43.0,24.02
1999-01-15 09:29:41.4788,-3.4995,-6.4892,6.6292,38.24,56.6,51.9
1999-01-15 09:29:41.5478,-2.9149,-6.4646,5.9835,52.59,48.55,43.6
1999-01-15 09:29:41.6168,-3.7945,-5.6268,6.5586,30.49,20.72,37.29
1999-01-15 09:29:41.6858,-3.5737,-4.0261,7.7027,14.58,3.59,33.25
1999-01-15 09:29:41.7548,-4.4073,-5.0458,7.3126,17.3,-0.28,28.98
1999-01-15 09:29:41.8238,-4.6449,-5.0183,7.0277,16.29,-1.39,13.26
1999-01-15 09:29:41.8928,-3.9004,-1.739,6.2953,0.53,-3.38,-16.58
1999-01-15 09:29:41.9618,-4.7131,-7.6022,8.8517,-15.05,8.64,1.96
1999-01-15 09:29:42.0308,-5.5233,-4.7298,6.4969,-23.71,37.39,-11.21
1999-01-15 09:29:42.0998,-5.0368,-3.7921,6.3348,-13.06,18.29,7.96
1999-01-15 09:29:42.1688,-5.6179,-5.7693,6.6615,-0.63,9.32,7.71
1999-01-15 09:29:42.2378,-5.4503,-5.1451,7.7751,-9.35,7.49,-0.84
1999-01-15 09:29:42.3067,-4.9752,-4.6604,6.3252,-23.2,5.11,1.26
1999-01-15 09:29:42.3757,-4.6125,-5.7507,6.6591,-11.77,-5.15,3.25
1999-01-15 09:29:42.4447,-4.3367,-4.9429,6.2893,-7.56,12.62,-2.71
1999-01-15 09:29:42.5137,-5.4928,-4.7729,6.1355,-1.17,7.51,-1.24
1999-01-15 09:29:42.5827,-5.3582,-5.1254,6.2001,-3.49,3.96,2.7
1999-01-15 09:29:42.6517,-4.9602,-6.5855,6.6292,-3.19,3.0,13.62
1999-01-15 09:29:42.7207,-6.0314,-4.305,7.9457,-33.22,34.04,0.65
1999-01-15 09:29:42.7897,-4.9812,-4.8537,6.0284,-23.06,29.14,14.32
1999-01-15 09:29:42.8587,-5.6322,-5.3223,4.5282,-23.54,27.87,3.47
1999-01-15 09:29:42.9277,-4.8812,-5.3474,4.2726,-4.3,-9.68,-5.68
1999-01-15 09:29:42.9967,-6.4305,-6.1923,6.78,-17.54,-5.4,-24.77
1999-01-15 09:29:43.0657,-5.4832,-5.6268,6.1995,13.76,-14.49,-20.32
1999-01-15 09:29:43.1346,-4.9459,-6.7602,6.2055,-3.5,-7.29,-9.56
1999-01-15 09:29:43.2036,-5.1421,-5.2708,5.9985,-12.69,-4.04,-8.49
1999-01-15 09:29:43.2726,-5.3833,-6.4485,5.8435,-5.1,2.7,12.09
1999-01-15 09:29:43.3416,-5.6741,-5.874,6.1331,-9.69,7.66,8.55
1999-01-15 09:29:43.4106,-5.4575,-6.2001,5.0123,-3.19,16.11,24.85
1999-01-15 09:29:43.4796,-5.9476,-5.6675,5.3881,-11.93,11.38,25.39
1999-01-15 09:29:43.5486,-5.9392,-5.8459,5.4222,4.44,3.48,26.36
1999-01-15 09:29:43.6176,-6.7381,-5.266,6.1672,-11.15,18.27,45.12
1999-01-15 09:29:43.6866,-7.5394,-7.1552,2.1698,19.85,18.62,31.26
1999-01-15 09:29:43.7556,-6.0912,-5.4515,4.594,-10.63,4.39,11.57
1999-01-15 09:29:43.8246,-7.3497,-4.8621,4.5443,-8.09,3.35,-5.25
1999-01-15 09:29:43.8935,-7.607,-3.0268,4.7771,-13.73,-32.01,-40.11
1999-01-15 09:29:43.9625,-7.1384,-6.6256,6.5107,-22.53,-15.21,-34.24
1999-01-15 09:29:44.0315,-6.3348,-5.4437,5.0991,0.88,-16.66,-17.97
1999-01-15 09:29:44.1005,-5.8949,-5.7334,5.8662,-4.75,-21.46,0.84
1999-01-15 09:29:44.1695,-6.306,-6.2863,7.3975,-28.97,-2.92,-9.72
1999-01-15 09:29:44.2385,-4.67,-6.7118,3.4624,-3.08,4.84,10.55
1999-01-15 09:29:44.3075,-5.7082,-5.4527,5.3647,-14.36,12.5,14.34
1999-01-15 09:29:44.3765,-6.4138,-5.9685,5.1224,-17.12,5.54,-21.96
1999-01-15 09:29:44.4455,-5.956,-6.9864,5.5281,-8.97,4.64,-18.65
1999-01-15 09:29:44.5145,-5.5802,-6.6705,4.5503,-12.56,1.9,-14.53
1999-01-15 09:29:44.5835,-5.7729,-6.8207,4.5916,-20.48,-0.88,-35.94
1999-01-15 09:29:44.6525,-5.2169,-7.7039,4.4115,-30.59,-1.52,-81.23
1999-01-15 09:29:44.7214,-3.9639,-8.0528,4.278,-46.73,-10.85,-63.17
1999-01-15 09:29:44.7904,-2.9226,-9.4381,3.621,-46.82,-13.89,-67.1
1999-01-15 09:29:44.8594,-2.9065,-8.4208,2.4625,-45.61,2.24,-104.11
1999-01-15 09:29:44.9284,-0.7516,-8.577,2.3332,-87.1,-38.19,-63.88
1999-01-15 09:29:44.9974,-0.5314,-9.5405,1.3416,-60.27,-68.08,-66.93
1999-01-15 09:29:45.0664,0.2382,-10.091,1.8096,-46.19,-66.74,-51.9
1999-01-15 09:29:45.1354,0.4291,-9.8361,1.3362,-42.1,-58.0,-38.38
1999-01-15 09:29:45.2044,2.7928,-9.2754,-0.3417,-77.3,-85.85,-61.13
1999-01-15 09:29:45.2734,1.9454,-9.7798,-0.4608,-103.0,-95.79,-111.35
1999-01-15 09:29:45.3424,3.7425,-8.6482,-8.3819,-167.66,-65.88,-170.65
1999-01-15 09:29:45.4114,3.2326,-8.7793,-4.3846,-118.79,-99.28,-145.88
1999-01-15 09:29:45.4804,6.3216,-5.7824,-5.3408,-102.55,-66.42,-104.65
1999-01-15 09:29:45.5493,4.9955,-5.4527,-7.2575,-83.4,-48.63,-60.49
1999-01-15 09:29:45.6183,4.4049,-3.7347,-7.3694,-68.9,-41.15,-35.53
1999-01-15 09:29:45.6873,4.059,-2.8742,-7.3329,-61.14,-37.67,-30.58
1999-01-15 09:29:45.7563,5.184,-3.8011,-8.1485,-66.97,-46.08,-22.01
1999-01-15 09:29:45.8253,4.0201,-1.9077,-9.0492,-37.14,-13.93,-47.75
1999-01-15 09:29:45.8943,4.1949,-1.6265,-8.121,-4.05,2.33,-60.04
1999-01-15 09:29:45.9633,4.8166,0.0862,-10.4895,4.27,39.52,-11.14
1999-01-15 09:29:46.0323,4.9889,-1.5355,-8.644,0.85,66.69,19.09
1999-01-15 09:29:46.1013,5.5096,-1.2501,-8.4077,0.74,21.59,5.02
1999-01-15 09:29:46.1703,4.9231,-1.8269,-8.2485,2.82,5.69,0.04
1999-01-15 09:29:46.2393,5.4892,-2.5403,-8.5914,6.16,-20.64,-18.42
1999-01-15 09:29:46.3083,5.2277,-2.3733,-8.7494,23.36,-22.94,5.59
1999-01-15 09:29:46.3772,4.8705,-1.8234,-9.1832,-17.81,-25.57,3.15
1999-01-15 09:29:46.4462,4.3199,-2.0071,-9.7918,-4.05,-9.12,-28.55
1999-01-15 09:29:46.5152,6.6507,-1.423,-11.9155,-16.56,-35.72,-40.4
1999-01-15 09:29:46.5842,2.6204,-0.8144,-8.7853,-13.64,-80.63,-27.68
1999-01-15 09:29:46.6532,1.9867,-1.2985,-8.9462,28.0,-127.71,-15.59
1999-01-15 09:29:46.7222,0.5757,-2.0573,-10.2729,48.29,-87.63,-19.89
1999-01-15 09:29:46.7912,1.3548,-2.1088,-9.0719,44.44,-24.97,3.24
1999-01-15 09:29:46.8602,0.4865,-2.5438,-10.4153,16.4,-8.37,8.17
1999-01-15 09:29:46.9292,-0.1011,-2.4792,-9.319,12.28,-11.22,14.11
1999-01-15 09:29:46.9982,0.7923,-2.8395,-9.9402,12.01,-17.71,12.86
1999-01-15 09:29:47.0672,-0.4727,-2.8341,-9.9797,15.79,18.13,2.02
1999-01-15 09:29:47.1362,0.3543,-2.8359,-9.8319,11.18,-13.83,-12.22
1999-01-15 09:29:47.2051,0.1568,-2.6426,-8.963,3.69,-9.81,-21.61
1999-01-15 09:29:47.2741,0.079,-3.1548,-9.6236,-3.39,-17.1,-6.89
1999-01-15 09:29:47.3431,-0.8856,-2.794,-9.3412,-0.96,-29.07,2.42
1999-01-15 09:29:47.4121,-2.0926,-3.8346,-9.8953,7.14,-3.7,30.48
1999-01-15 09:29:47.4811,-1.5487,-3.1626,-10.6224,14.11,2.19,-4.7
1999-01-15 09:29:47.5501,-1.3739,-3.3313,-9.7307,-0.49,-0.34,0.25
1999-01-15 09:29:47.6191,-1.1489,-3.8837,-9.2454,8.23,26.32,-5.07
1999-01-15 09:29:47.6881,-0.1544,-3.2925,-9.4698,10.75,19.32,-7.88
1999-01-15 09:29:47.7571,-0.3453,-3.4139,-9.1473,-3.95,6.62,-2.15
1999-01-15 09:29:47.8261,-0.3094,-3.3433,-9.6643,-2.77,6.94,-0.71
1999-01-15 09:29:47.8951,0.0389,-3.2721,-9.4447,-11.26,18.0,10.27
1999-01-15 09:29:47.9640,-0.0377,-2.6492,-9.7655,-11.38,-12.5,16.94
1999-01-15 09:29:48.0330,0.5864,-2.7282,-9.7822,-11.64,-12.47,90.48
1999-01-15 09:29:48.1020,-3.1829,-1.8551,-9.8085,-4.02,-12.47,57.16
1999-01-15 09:29:48.1710,-1.5451,-2.7341,-9.4716,9.25,19.16,10.67
1999-01-15 09:29:48.2400,-0.2017,-3.1835,-10.1819,19.15,24.18,3.12
1999-01-15 09:29:48.3090,-0.9934,-3.3708,-9.5416,18.86,15.88,-1.07
1999-01-15 09:29:48.3780,-2.0131,-3.4367,-9.5746,12.32,17.2,-37.47
1999-01-15 09:29:48.4470,-0.3345,-3.6491,-9.7888,20.81,23.25,-38.68
1999-01-15 09:29:48.5160,0.3441,-4.1572,-8.8068,14.6,14.28,-16.68
1999-01-15 09:29:48.5850,0.1658,-3.9094,-9.2939,7.38,22.08,-7.17
1999-01-15 09:29:48.6540,0.4321,-3.9513,-9.4704,15.21,46.17,-15.21
1999-01-15 09:29:48.7230,1.715,-4.0955,-8.9456,3.01,43.41,-4.85
1999-01-15 09:29:48.7919,2.6366,-4.3498,-9.5016,-3.65,39.26,-8.93
1999-01-15 09:29:48.8609,2.2375,-3.7879,-9.1485,7.58,16.0,5.18
1999-01-15 09:29:48.9299,1.8982,-4.3056,-8.501,17.33,-15.17,4.41
1999-01-15 09:29:48.9989,1.4446,-3.9812,-8.9702,-5.01,-34.19,-2.15
1999-01-15 09:29:49.0679,1.0664,-3.846,-9.0252,-7.63,-28.95,1.22
1999-01-15 09:29:49.1369,1.0646,-3.679,-9.1712,-8.08,-16.5,6.67
1999-01-15 09:29:49.2059,0.6768,-3.6742,-9.4752,-0.48,-4.6,-2.5
1999-01-15 09:29:49.2749,0.8102,-3.4989,-8.8056,-8.61,-0.07,-4.8
1999-01-15 09:29:49.3439,1.189,-3.8807,-9.2478,1.65,6.91,-2.1
1999-01-15 09:29:49.4129,1.1932,-4.0698,-9.3113,-5.84,4.52,3.79
1999-01-15 09:29:49.4819,0.9604,-3.6413,-8.9684,-15.5,-3.38,2.52
1999-01-15 09:29:49.5509,0.9239,-3.302,-9.2748,-6.76,-2.8,0.7
1999-01-15 09:29:49.6198,0.97,-3.9657,-9.1754,2.61,0.98,-1.16
1999-01-15 09:29:49.6888,0.6565,-3.5414,-9.8929,5.67,17.89,-1.01
1999-01-15 09:29:49.7578,1.1059,-3.6126,-9.3143,8.72,9.69,4.25
1999-01-15 09:29:49.8268,0.9455,-4.0632,-9.6314,22.05,16.84,-16.54
1999-01-15 09:29:49.8958,2.4547,-3.1321,-9.039,-0.37,-7.76,-4.5
1999-01-15 09:29:49.9648,1.1442,-3.2057,-9.0749,-16.76,-20.98,17.75
1999-01-15 09:29:50.0338,0.6343,-3.9244,-9.7176,-17.78,-45.12,55.61
1999-01-15 09:29:50.1028,0.1496,-3.2165,-10.249,-1.51,2.08,24.38
1999-01-15 09:29:50.1718,0.1574,-2.8281,-9.7702,-20.09,3.74,18.38
1999-01-15 09:29:50.2408,-1.0245,-3.5725,-10.3124,-46.89,-9.7,-4.86
1999-01-15 09:29:50.3098,0.1879,-2.4894,-9.6559,-13.51,7.4,-16.62
1999-01-15 09:29:50.3788,-0.2453,-2.773,-9.2041,-8.73,6.53,-20.06
1999-01-15 09:29:50.4477,0.0168,-3.3924,-9.7439,23.61,38.04,-21.97
1999-01-15 09:29:50.5167,0.6523,-3.2159,-9.4471,0.28,16.98,-12.31
1999-01-15 09:29:50.5857,0.5637,-2.8718,-8.6386,-0.64,-8.29,-3.82
1999-01-15 09:29:50.6547,0.0838,-1.1675,-10.7959,28.59,-6.54,-19.4
1999-01-15 09:29:50.7237,0.2627,-4.0297,-8.9833,37.54,22.36,-7.57
1999-01-15 09:29:50.7927,0.6618,-5.0422,-9.121,25.82,21.55,-19.6
1999-01-15 09:29:50.8617,1.599,-3.989,-8.8882,8.66,32.8,-6.65
1999-01-15 09:29:50.9307,0.4979,-3.6551,-9.4142,0.11,32.41,-4.69
1999-01-15 09:29:50.9997,1.9329,-3.9094,-8.7703,12.46,35.03,-5.04
1999-01-15 09:29:51.0687,2.4487,-4.144,-9.4722,10.73,7.24,5.98
1999-01-15 09:29:51.1377,1.3183,-3.9304,-9.48,7.26,-1.97,21.41
1999-01-15 09:29:51.2066,1.3967,-3.8861,-8.6997,-2.33,1.28,13.35
1999-01-15 09:29:51.2756,1.5421,-4.4324,-9.2861,-8.04,-1.58,13.19
1999-01-15 09:29:51.3446,1.1795,-4.22,-9.0025,-3.96,1.62,3.29
1999-01-15 09:29:51.4136,1.6881,-3.7239,-8.9839,-8.26,9.42,-3.47
1999-01-15 09:29:51.4826,1.8515,-4.0046,-8.8607,-2.72,1.29,0.11
1999-01-15 09:29:51.5516,1.7492,-3.9447,-9.0294,-11.48,1.79,8.45
1999-01-15 09:29:51.6206,1.3279,-3.8011,-8.3843,-4.94,-4.13,7.12
1999-01-15 09:29:51.6896,1.2728,-3.9345,-9.2538,-3.46,-0.69,0.8
1999-01-15 09:29:51.7586,1.4793,-4.0046,-9.2209,-3.06,-3.09,4.48
1999-01-15 09:29:51.8276,0.9676,-3.779,-9.41,-6.99,-4.68,0.47
1999-01-15 09:29:51.8966,1.0729,-3.6018,-9.0521,-1.5,3.64,-3.89
1999-01-15 09:29:51.9656,1.0981,-3.4989,-9.1443,-4.68,6.68,-4.8
1999-01-15 09:29:52.0345,1.6097,-3.5073,-9.3831,-13.63,-2.91,-0.13
1999-01-15 09:29:52.1035,1.7121,-3.6156,-9.4525,-25.19,-19.51,10.12
1999-01-15 09:29:52.1725,0.8007,-3.3313,-9.3107,-39.58,-45.56,1.46
1999-01-15 09:29:52.2415,1.0747,-3.4875,-8.3484,-24.45,7.46,21.67
1999-01-15 09:29:52.3105,0.4063,-2.9717,-9.781,-9.35,-8.84,9.07
1999-01-15 09:29:52.3795,-0.6211,-2.1321,-9.3675,12.06,-17.13,-3.2
1999-01-15 09:29:52.4485,-0.3842,-3.1339,-9.4226,16.23,10.24,4.48
1999-01-15 09:29:52.5175,0.082,-2.864,-9.6727,3.47,2.61,0.17
1999-01-15 09:29:52.5865,-0.4309,-3.1255,-9.6368,8.0,-3.54,-7.86
1999-01-15 09:29:52.6555,0.304,-3.6916,-9.866,12.22,-0.57,-3.22
1999-01-15 09:29:52.7245,0.0652,-3.3906,-9.2233,16.65,4.06,-0.94
1999-01-15 09:29:52.7935,0.4171,-4.1631,-8.8236,4.97,6.25,-1.22
1999-01-15 09:29:52.8624,0.0718,-3.5952,-9.3561,-8.52,-4.24,5.24
1999-01-15 09:29:52.9314,0.0126,-3.3415,-9.2658,-11.27,2.33,5.73
1999-01-15 09:29:53.0004,-0.4446,-3.5055,-9.9139,-7.14,-4.24,12.74
1999-01-15 09:29:53.0694,-0.0168,-4.4611,-9.7756,12.84,11.82,-5.01
1999-01-15 09:29:53.1384,-1.2926,-4.2062,-9.7391,-4.53,17.86,-5.96
1999-01-15 09:29:53.2074,0.0365,-3.6126,-9.4585,4.23,10.85,-0.88
1999-01-15 09:29:53.2764,0.1005,-4.0955,-8.741,3.23,22.5,-4.81
1999-01-15 09:29:53.3454,-0.4362,-3.755,-9.3639,-13.5,-0.76,7.4
1999-01-15 09:29:53.4154,-0.3734,-3.1129,-9.5692,-8.34,-17.72,23.35
1999-01-15 09:29:53.4846,-0.6876,-3.5839,-9.7248,-5.55,-5.18,22.9
1999-01-15 09:29:53.5538,-0.5763,-3.6545,-9.8002,-2.28,-2.13,11.02
1999-01-15 09:29:53.6230,-1.0119,-3.4205,-9.8684,-7.84,1.65,14.63
1999-01-15 09:29:53.6922,-0.7414,-3.0866,-8.8631,-7.01,-5.33,21.41
1999-01-15 09:29:53.7614,-0.8114,-3.0525,-9.936,-2.17,-30.07,17.9
1999-01-15 09:29:53.8306,-2.0089,-3.1183,-9.6972,-8.52,-19.42,18.87
1999-01-15 09:29:53.8998,-2.3464,-2.6043,-8.9726,26.14,-91.99,37.85
1999-01-15 09:29:53.9691,-3.2565,-3.4768,-8.6686,20.48,-35.72,15.74
1999-01-15 09:29:54.0383,-2.9364,-3.8681,-9.3705,16.99,-7.32,0.02
1999-01-15 09:29:54.1075,-3.5863,-3.8214,-8.7476,11.35,-5.34,-7.79
1999-01-15 09:29:54.1767,-3.2033,-3.6138,-8.519,4.59,-7.24,-0.32
1999-01-15 09:29:54.2459,-3.247,-3.6706,-9.1443,-10.9,-11.03,-5.47
1999-01-15 09:29:54.3151,-2.8718,-2.4762,-8.2006,-25.36,-28.75,-3.69
1999-01-15 09:29:54.3843,-4.2361,-3.8113,-9.2598,-17.68,-16.26,-23.13
1999-01-15 09:29:54.4535,-2.9322,-3.4026,-8.3765,-24.54,-20.73,-10.46
1999-01-15 09:29:54.5227,-3.32,-3.0824,-9.5752,-8.05,3.25,-15.85
1999-01-15 09:29:54.5919,-4.0752,-2.9107,-7.3096,10.77,18.24,-21.21
1999-01-15 09:29:54.6612,-3.0764,-3.5569,-8.7673,38.84,100.57,-33.88
1999-01-15 09:29:54.7304,-1.6259,-3.6138,-8.0815,22.24,97.95,-13.26
1999-01-15 09:29:54.7996,-0.7977,-3.3732,-9.4585,-2.34,56.69,1.79
1999-01-15 09:29:54.8688,-0.9808,-3.7167,-9.2502,-12.62,26.41,7.81
1999-01-15 09:29:54.9380,-0.8073,-3.5013,-8.8451,4.42,13.49,27.21
1999-01-15 09:29:55.0072,-1.0251,-4.0656,-9.9324,45.26,-32.66,55.42
1999-01-15 09:29:55.0764,-1.7641,-3.8454,-10.091,67.1,-66.87,-1.43
1999-01-15 09:29:55.1456,-2.1226,-3.2643,-7.9942,17.98,18.8,-1.58
1999-01-15 09:29:55.2148,-1.3686,-5.5317,-11.2866,-11.3,74.3,-6.61
1999-01-15 09:29:55.2840,-0.8964,-4.8136,-8.8487,-15.36,10.24,-19.92
1999-01-15 09:29:55.3533,-0.8767,-4.366,-8.7583,-0.05,9.71,-10.89
1999-01-15 09:29:55.4225,-0.8761,-4.2798,-9.2909,1.26,7.49,-8.04
1999-01-15 09:29:55.4917,-0.6391,-4.7041,-9.3849,1.37,6.83,-2.58
1999-01-15 09:29:55.5609,-0.6223,-4.4635,-8.9989,-10.44,-4.04,-0.32
1999-01-15 09:29:55.6301,-0.6517,-4.3935,-9.4435,-17.95,-0.04,12.93
1999-01-15 09:29:55.6993,-0.7959,-3.8579,-9.9192,-43.02,-9.32,-33.39
1999-01-15 09:29:55.7685,-0.7708,-4.0824,-9.3484,-1.08,1.92,-3.67
1999-01-15 09:29:55.8377,-0.7803,-3.6467,-8.6201,1.16,4.23,4.07
1999-01-15 09:29:55.9069,-0.6678,-3.1488,-9.4585,-6.83,6.74,3.32
1999-01-15 09:29:55.9761,-0.6116,-3.6234,-9.425,-15.75,0.83,4.98
1999-01-15 09:29:56.0454,-0.9102,-3.1081,-10.0473,-24.72,0.62,9.09
1999-01-15 09:29:56.1146,-0.7444,-2.6234,-10.2675,-30.66,-14.55,9.12
1999-01-15 09:29:56.1838,-0.754,-2.794,-10.3321,-38.14,-28.41,10.96
1999-01-15 09:29:56.2530,-0.8456,-2.499,-8.6799,15.37,-12.73,22.6
1999-01-15 09:29:56.3222,-1.0873,-2.3003,-9.8803,-35.55,-42.01,-16.29
1999-01-15 09:29:56.3914,-1.3608,-2.1321,-10.1239,-6.85,5.78,8.02
1999-01-15 09:29:56.4606,-1.5984,-2.2375,-9.5028,-1.72,-7.64,-16.91
1999-01-15 09:29:56.5298,-1.7731,-2.5091,-9.0533,0.1,-0.11,-15.01
1999-01-15 09:29:56.5990,-1.5343,-2.4966,-10.1275,0.1,32.01,-21.77
1999-01-15 09:29:56.6682,-1.514,-2.4918,-9.8702,1.57,18.24,-10.3
1999-01-15 09:29:56.7375,-1.4434,-2.3117,-10.1269,12.52,22.16,11.54
1999-01-15 09:29:56.8067,-1.1735,-1.8222,-10.8887,-7.78,3.26,8.12
1999-01-15 09:29:56.8759,-1.0933,-2.6402,-9.5189,8.28,-1.09,15.94
1999-01-15 09:29:56.9451,-1.0622,-2.7479,-9.2616,-0.51,-3.0,14.54
1999-01-15 09:29:57.0143,-0.386,-1.6827,-10.456,18.47,26.28,13.82
1999-01-15 09:29:57.0835,-0.4488,-2.332,-9.0384,33.9,12.3,23.11
1999-01-15 09:29:57.1527,-0.5308,-3.1428,-8.6991,32.64,11.75,1.16
1999-01-15 09:29:57.2219,0.2136,-3.9776,-9.6757,29.42,26.92,-16.04
1999-01-15 09:29:57.2911,-0.0215,-4.3469,-10.9635,-44.49,-2.8,-51.27
1999-01-15 09:29:57.3603,0.465,-3.7155,-8.0378,-43.86,47.34,-36.67
1999-01-15 09:29:57.4296,0.3423,-3.609,-8.9396,-6.12,19.32,-17.89
1999-01-15 09:29:57.4988,0.2615,-3.3732,-10.678,-1.8,-14.96,-14.15
1999-01-15 09:29:57.5680,-0.4225,-2.937,-9.3304,-10.37,-28.58,-15.04
1999-01-15 09:29:57.6372,-0.6702,-2.7653,-9.2556,-1.62,-17.38,-24.7
1999-01-15 09:29:57.7064,-1.0622,-3.0752,-9.6799,-9.88,-5.57,-23.53
1999-01-15 09:29:57.7756,-0.7175,-3.0148,-9.6793,-10.9,11.1,-30.06
1999-01-15 09:29:57.8448,-1.1089,-3.1512,-9.2359,-6.04,28.52,-42.33
1999-01-15 09:29:57.9140,-0.0622,-3.1381,-9.1952,3.83,42.0,-67.52
1999-01-15 09:29:57.9832,1.1322,-3.2284,-9.3944,0.69,20.85,-68.14
1999-01-15 09:29:58.0524,0.8228,-3.0764,-9.7343,-5.88,17.6,-68.03
1999-01-15 09:29:58.1216,1.1884,-3.0226,-9.1533,-6.27,14.81,-71.62
1999-01-15 09:29:58.1909,1.6408,-2.493,-9.3454,-12.06,25.43,-82.65
1999-01-15 09:29:58.2601,3.1979,-1.0388,-9.8265,-18.64,4.16,-78.25
1999-01-15 09:29:58.3293,3.4492,-0.2238,-11.295,-13.53,-3.37,-60.39
1999-01-15 09:29:58.3985,2.5654,0.4153,-10.0688,7.39,-11.56,-40.97
1999-01-15 09:29:58.4677,3.1201,0.6469,-10.1502,3.92,-11.24,-34.16
1999-01-15 09:29:58.5369,1.4655,-0.8264,-9.3196,5.83,-15.09,-19.43
1999-01-15 09:29:58.6061,1.1466,-1.1238,-9.0198,8.79,-10.01,-23.56
1999-01-15 09:29:58.6753,1.876,-0.7576,-8.9283,0.04,-2.98,-29.65
1999-01-15 09:29:58.7445,1.8952,-0.8725,-9.3328,-1.76,2.44,-30.56
1999-01-15 09:29:58.8137,1.4888,-1.2914,-9.9546,-3.24,5.75,-32.81
1999-01-15 09:29:58.8830,2.1154,-1.496,-9.1778,3.96,6.63,-34.64
1999-01-15 09:29:58.9522,2.9334,-1.7569,-9.9958,4.16,10.29,-25.55
1999-01-15 09:29:59.0214,2.6683,-1.5756,-9.8032,-3.52,17.86,-19.45
1999-01-15 09:29:59.0906,4.2487,-0.1484,-13.6396,-22.27,11.72,-24.0
1999-01-15 09:29:59.1598,2.4254,0.6457,-11.6744,29.37,1.02,11.53
1999-01-15 09:29:59.2290,1.5672,0.7486,-10.976,36.77,-4.1,-4.61
1999-01-15 09:29:59.2982,1.2345,1.1136,-7.7464,48.41,-9.31,-13.54
1999-01-15 09:29:59.3674,2.2219,1.1023,-8.1994,23.58,-8.23,-33.21
1999-01-15 09:29:59.4366,1.6067,-0.003,-8.2168,7.04,-7.07,-43.4
1999-01-15 09:29:59.5058,2.5648,-0.6134,-8.9163,-12.95,-8.31,-53.09
1999-01-15 09:29:59.5751,3.156,-1.1789,-10.2933,-10.77,-4.34,-46.4
1999-01-15 09:29:59.6443,2.8197,-1.3303,-11.4793,-1.86,-11.71,-36.81
1999-01-15 09:29:59.7135,0.4757,-1.3823,-9.6476,21.06,-12.24,-40.29
1999-01-15 09:29:59.7827,1.5427,-1.2226,-8.6943,28.38,-9.81,-61.38
1999-01-15 09:29:59.8519,2.1477,-1.517,-9.3274,1.93,-6.62,-76.39
1999-01-15 09:29:59.9211,4.0339,-1.5978,-9.6452,-20.22,12.83,-82.57
1999-01-15 09:29:59.9903,4.3193,-1.3087,-10.9563,-32.67,-15.61,-22.11
1999-01-15 09:30:00.0595,0.8904,-0.6074,-11.4171,-10.52,-15.26,-2.32
1999-01-15 09:30:00.1287,0.6606,0.6074,-11.9712,-4.21,-26.44,10.63
1999-01-15 09:30:00.1979,0.1514,1.5589,-11.2489,15.24,-10.52,-6.18
1999-01-15 09:30:00.2672,1.1896,0.8593,-7.5932,35.31,-1.95,3.27
1999-01-15 09:30:00.3364,-0.4141,-0.6409,-6.2432,16.7,2.42,0.38
1999-01-15 09:30:00.4056,1.6977,-0.4105,-8.82,-18.14,5.37,-10.73
1999-01-15 09:30:00.4748,0.7337,0.2328,-8.0504,-13.77,3.63,3.88
1999-01-15 09:30:00.5440,-0.7923,-0.2202,-8.7787,-19.55,-0.74,-3.71
1999-01-15 09:30:00.6132,-0.7468,-0.4787,-9.9055,-19.85,-10.86,-14.69
1999-01-15 09:30:00.6824,-1.2232,-0.2645,-7.2204,4.1,-1.3,-25.94
1999-01-15 09:30:00.7516,-0.2962,-0.0856,-10.6798,-6.4,-0.79,-57.52
1999-01-15 09:30:00.8208,2.1878,-0.7725,-13.2979,-5.54,-40.52,-51.02
1999-01-15 09:30:00.8900,1.1675,-2.2171,-10.2903,9.09,19.78,-67.47
1999-01-15 09:30:00.9593,3.4289,-1.2788,-9.8732,27.87,18.69,-45.62
1999-01-15 09:30:01.0285,0.0287,-0.4171,-15.5527,9.62,-6.01,-32.72
1999-01-15 09:30:01.0977,-0.0215,1.3482,-12.6151,1.87,10.21,-38.74
1999-01-15 09:30:01.1669,2.1184,0.1981,-9.1347,10.94,16.5,-22.99
1999-01-15 09:30:01.2361,0.7875,-0.5942,-7.6543,1.77,-4.5,-0.07
1999-01-15 09:30:01.3053,0.964,-1.0155,-7.458,-7.39,-15.91,16.97
1999-01-15 09:30:01.3745,1.8042,-1.3757,-10.6643,-13.97,-14.02,16.85
1999-01-15 09:30:01.4437,0.8659,-1.5505,-10.9647,-2.98,-12.16,20.42
1999-01-15 09:30:01.5129,0.4303,-0.8001,-10.1658,4.25,-5.33,12.87
1999-01-15 09:30:01.5821,-0.0335,0.0233,-11.1879,-7.79,-0.69,0.87
1999-01-15 09:30:01.6514,2.4283,0.2226,-12.8353,0.73,22.95,-15.97
1999-01-15 09:30:01.7206,-1.6863,0.4404,-10.3519,6.55,-4.24,28.27
1999-01-15 09:30:01.7898,-1.7587,0.2106,-8.9223,13.88,0.58,6.34
1999-01-15 09:30:01.8590,-0.4949,0.374,-8.0462,5.73,-3.88,-1.93
1999-01-15 09:30:01.9282,0.4841,0.2178,-9.258,-0.8,3.61,-14.52
1999-01-15 09:30:01.9974,0.9993,-0.0012,-9.6242,-13.8,-1.13,-7.32
1999-01-15 09:30:02.0666,1.1346,-0.3578,-9.8564,-12.1,0.99,3.38
1999-01-15 09:30:02.1358,-0.0054,-0.7271,-10.0994,-2.84,2.71,13.4
1999-01-15 09:30:02.2050,-0.2615,-0.7492,-10.6804,4.94,11.5,0.64
1999-01-15 09:30:02.2742,0.0676,-0.4907,-8.3353,5.5,23.92,-11.32
1999-01-15 09:30:02.3435,1.6558,0.0239,-11.3704,-13.5,10.12,-9.62
1999-01-15 09:30:02.4127,0.8264,0.8749,-12.3925,14.12,12.42,-2.5
1999-01-15 09:30:02.4819,1.1059,1.5511,-12.3201,1.87,5.72,-9.89
1999-01-15 09:30:02.5511,-0.1472,1.3452,-8.9373,15.33,-0.01,-7.19
1999-01-15 09:30:02.6203,-0.1508,0.5625,-7.4149,4.65,-5.53,-18.67
1999-01-15 09:30:02.6895,-0.1574,0.2633,-9.0797,-6.17,-11.93,-33.73
1999-01-15 09:30:02.7587,-0.0191,0.465,-10.0425,-11.52,-19.86,-49.83
1999-01-15 09:30:02.8279,0.2442,0.7456,-9.6416,-9.35,-21.31,-63.21
1999-01-15 09:30:02.8971,0.681,0.541,-9.3047,-13.55,-25.44,-76.59
1999-01-15 09:30:02.9663,1.0388,0.4003,-9.5518,-13.87,-32.93,-80.21
1999-01-15 09:30:03.0356,1.2902,-0.3932,-8.1306,-0.99,-29.39,-85.33
1999-01-15 09:30:03.1048,3.8137,-0.8031,-6.2414,13.97,-12.72,-87.88
1999-01-15 09:30:03.1740,0.146,1.4308,-11.3393,-3.48,51.07,-83.36
1999-01-15 09:30:03.2432,5.9476,1.672,-14.168,-29.86,108.26,-98.39
1999-01-15 09:30:03.3124,-3.4708,-2.0035,-19.6063,-45.3,37.08,-8.83
1999-01-15 09:30:03.3816,-3.1794,-1.593,-10.7355,11.43,-7.25,28.64
1999-01-15 09:30:03.4508,-2.852,-1.5828,-7.388,20.88,-23.22,6.57
1999-01-15 09:30:03.5200,0.1699,-0.0275,-7.1001,28.45,-21.69,-3.61
1999-01-15 09:30:03.5892,0.3555,0.1281,-10.2801,-0.04,-29.9,-12.14
1999-01-15 09:30:03.6584,1.143,-0.5553,-9.5153,19.42,-1.48,-4.41
1999-01-15 09:30:03.7277,0.8521,-1.0119,-8.7769,11.6,7.91,-3.32
1999-01-15 09:30:03.7969,0.8856,-0.1448,-11.9102,-16.98,9.3,-5.81
1999-01-15 09:30:03.8661,1.5206,0.836,-12.7108,21.02,26.75,17.35
1999-01-15 09:30:03.9353,-1.7916,1.5571,-12.0197,10.94,4.03,27.19
1999-01-15 09:30:04.0045,-2.2865,0.7313,-9.3747,26.16,-7.18,33.01
1999-01-15 09:30:04.0737,-3.3134,-0.7241,-8.7278,19.96,-5.33,-2.43
1999-01-15 09:30:04.1429,-2.5355,0.058,-8.7727,9.54,-15.16,-32.85
1999-01-15 09:30:04.2121,-0.7995,1.3207,-10.459,1.2,-15.86,-71.53
1999-01-15 09:30:04.2813,0.3578,1.9388,-8.8271,-5.61,-19.96,-84.11
1999-01-15 09:30:04.3505,-0.9162,0.9598,-10.3998,-12.05,-36.0,-84.7
1999-01-15 09:30:04.4197,-0.9371,0.6971,-11.0299,-22.6,-38.04,-112.58
1999-01-15 09:30:04.4890,0.0347,0.2741,-10.8659,-17.83,-24.96,-130.17
1999-01-15 09:30:04.5582,0.8755,-0.3537,-9.3705,-17.26,-11.97,-128.85
1999-01-15 09:30:04.6274,0.8114,-1.4583,-10.3315,-27.86,-1.98,-102.27
1999-01-15 09:30:04.6966,-0.4865,-2.8239,-9.3101,-17.47,4.92,-57.46
1999-01-15 09:30:04.7658,-2.0502,-3.618,-9.5033,-13.2,8.45,-39.09
1999-01-15 09:30:04.8350,-1.0113,-3.0854,-10.2861,-5.25,9.33,-28.45
1999-01-15 09:30:04.9042,-0.2657,-2.1303,-11.584,0.67,3.88,-6.06
1999-01-15 09:30:04.9734,-1.1472,-1.0586,-10.4303,14.8,-0.31,19.01
1999-01-15 09:30:05.0426,-1.3249,-0.5158,-8.6973,23.88,0.44,29.3
1999-01-15 09:30:05.1118,-1.2447,-0.5463,-8.4825,4.32,3.8,27.21
1999-01-15 09:30:05.1811,-0.8874,-0.8288,-10.6337,-2.59,5.13,26.78
1999-01-15 09:30:05.2503,-1.1418,-0.9353,-9.9946,-2.67,8.07,24.87
1999-01-15 09:30:05.3195,-0.7414,-0.8809,-10.1245,-0.58,12.39,21.17
1999-01-15 09:30:05.3887,-1.0251,-0.8108,-9.0605,-0.09,17.15,20.04
1999-01-15 09:30:05.4579,-0.4596,-1.0143,-9.4202,-6.83,20.15,16.21
1999-01-15 09:30:05.5271,-0.2753,-1.0873,-12.356,-18.78,7.93,25.35
1999-01-15 09:30:05.5963,-1.8329,-0.3219,-10.9988,17.44,6.71,25.47
1999-01-15 09:30:05.6655,-0.891,-0.5679,-8.4615,6.76,2.47,14.57
1999-01-15 09:30:05.7347,-0.152,-1.286,-8.8792,-13.37,-10.55,14.55
1999-01-15 09:30:05.8039,-0.0485,-1.6193,-12.2572,-17.29,-14.55,17.19
1999-01-15 09:30:05.8732,0.2968,-1.0771,-9.1946,3.9,0.01,20.45
1999-01-15 09:30:05.9424,-1.0275,-0.8701,-9.8199,1.08,-8.9,21.43
1999-01-15 09:30:06.0116,-1.0341,-0.5069,-9.7888,0.71,-5.27,4.12
1999-01-15 09:30:06.0808,-1.1561,-0.0778,-9.468,-1.03,-3.23,-9.41
1999-01-15 09:30:06.1500,-0.9239,0.0389,-9.3687,-5.53,-2.1,-27.81
1999-01-15 09:30:06.2192,-1.5613,0.1281,-9.2766,-27.94,5.8,-46.03
1999-01-15 09:30:06.2884,1.4517,-0.2723,-13.3565,-37.93,29.82,-53.8
1999-01-15 09:30:06.3576,-1.0275,-0.0916,-10.5733,-12.78,9.32,2.56
1999-01-15 09:30:06.4268,-3.4456,-0.1987,-9.2281,-1.92,-1.0,12.03
1999-01-15 09:30:06.4960,-1.7228,0.4739,-9.933,2.13,0.79,7.2
1999-01-15 09:30:06.5653,-2.8742,0.7468,-11.0604,4.66,4.04,-3.19
1999-01-15 09:30:06.6345,-2.2554,0.8677,-9.4501,16.95,15.67,-10.89
1999-01-15 09:30:06.7037,-0.6565,0.8677,-9.3232,11.16,17.39,-22.22
1999-01-15 09:30:06.7729,-0.4434,0.2316,-9.1258,14.74,23.07,-31.92
1999-01-15 09:30:06.8421,-1.1286,-0.678,-9.0306,12.58,39.58,-64.62
1999-01-15 09:30:06.9113,-1.2226,-1.049,-9.0875,-3.72,56.75,-90.25
1999-01-15 09:30:06.9805,1.6444,-0.8192,-9.8229,-23.75,16.54,-91.94
1999-01-15 09:30:07.0497,0.827,-1.1328,-11.0437,-10.7,34.32,-49.62
1999-01-15 09:30:07.1189,0.6983,-0.4327,-10.3591,-8.37,14.18,-42.21
1999-01-15 09:30:07.1881,1.7515,0.8922,-10.4596,-5.98,11.28,-35.81
1999-01-15 09:30:07.2574,0.5146,0.9138,-10.6469,-11.8,7.09,-27.64
1999-01-15 09:30:07.3266,0.6217,1.2567,-9.4202,-11.89,0.6,-12.18
1999-01-15 09:30:07.3958,0.6146,1.4182,-9.9127,-2.27,0.25,-12.42
1999-01-15 09:30:07.4650,0.3333,1.1394,-10.5823,9.77,2.56,-21.72
1999-01-15 09:30:07.5342,0.0437,1.6193,-10.4865,14.52,3.44,-36.55
1999-01-15 09:30:07.6034,1.1543,1.8431,-8.2449,35.97,-3.83,-52.98
1999-01-15 09:30:07.6726,1.7707,1.6486,-8.7877,13.06,-34.88,-58.27
1999-01-15 09:30:07.7418,1.3063,1.1489,-10.1024,-1.77,-38.78,-54.26
1999-01-15 09:30:07.8110,2.0136,0.8515,-9.7128,3.41,-29.39,-33.92
1999-01-15 09:30:07.8802,0.8282,0.0,-10.331,-4.48,-21.94,-18.63
1999-01-15 09:30:07.9495,-0.2824,-0.0413,-9.7385,-15.24,-4.4,-27.18
1999-01-15 09:30:08.0187,-0.824,0.7025,-10.5081,-19.43,-9.13,-50.53
1999-01-15 09:30:08.0879,-0.8892,2.1381,-8.8014,-41.76,-9.32,-54.39
1999-01-15 09:30:08.1571,-0.9946,2.3972,-10.1484,-89.5,-34.91,-41.59
1999-01-15 09:30:08.2263,-1.5451,2.5157,-10.6673,-42.53,0.74,-23.92
1999-01-15 09:30:08.2955,-2.174,2.2656,-10.9683,-27.54,5.5,-3.09
1999-01-15 09:30:08.3647,-2.8508,2.7395,-9.7427,-0.8,7.25,14.0
1999-01-15 09:30:08.4339,-2.1644,3.0465,-9.5746,13.82,6.32,19.06
1999-01-15 09:30:08.5031,-3.5228,1.5283,-9.3783,30.46,12.44,23.43
1999-01-15 09:30:08.5723,-0.5338,2.3404,-9.3908,32.11,33.01,45.6
1999-01-15 09:30:08.6416,-3.7478,0.5362,-10.009,9.58,16.8,31.5
1999-01-15 09:30:08.7108,-0.9999,2.9992,-8.9947,9.08,16.85,-0.85
1999-01-15 09:30:08.7800,-0.7989,4.077,-9.1096,-3.71,-6.42,-5.36
1999-01-15 09:30:08.8492,-0.4781,4.272,-9.8319,-11.65,-10.69,4.83
1999-01-15 09:30:08.9184,-1.4206,3.013,-10.0515,-5.85,-10.49,12.4
1999-01-15 09:30:08.9876,-1.6157,2.4391,-9.4232,-11.87,-10.56,9.64
1999-01-15 09:30:09.0568,-1.1005,2.3589,-9.553,-3.84,-1.38,4.89
1999-01-15 09:30:09.1260,-0.4141,2.3123,-9.7798,-10.4,-7.79,3.55
1999-01-15 09:30:09.1952,-0.1251,2.1429,-10.5655,-5.4,-2.32,4.8
1999-01-15 09:30:09.2644,0.0245,2.253,-9.9025,3.66,0.46,5.78
1999-01-15 09:30:09.3337,0.0592,2.1513,-10.386,6.7,-3.42,9.1
1999-01-15 09:30:09.4029,0.1987,2.5648,-10.3351,9.22,5.85,5.9
1999-01-15 09:30:09.4721,0.5033,2.8065,-8.823,9.96,5.15,17.83
1999-01-15 09:30:09.5413,-0.0299,2.396,-9.1287,4.04,-3.1,31.47
1999-01-15 09:30:09.6105,-0.8791,2.0741,-10.0623,3.47,-13.13,32.7
1999-01-15 09:30:09.6797,-1.5583,1.4876,-9.9958,-4.0,-14.39,17.89
1999-01-15 09:30:09.7489,-0.2573,2.9047,-9.6536,4.08,-8.46,12.78
1999-01-15 09:30:09.8181,-0.1269,2.5564,-9.5405,8.83,-3.64,17.38
1999-01-15 09:30:09.8873,-1.1483,2.1836,-9.7966,6.78,-8.91,22.92
1999-01-15 09:30:09.9565,-1.1196,2.1776,-9.4836,7.44,-2.29,20.54
1999-01-15 09:30:10.0258,-1.1023,2.1393,-9.8863,2.34,-5.58,16.34
1999-01-15 09:30:10.0950,-1.3392,2.1603,-9.4627,0.11,-1.54,12.83
1999-01-15 09:30:10.1642,-0.9958,2.3093,-10.0317,-16.54,11.62,-3.44
1999-01-15 09:30:10.2334,-0.6678,2.5385,-9.778,-5.95,3.88,-0.99
1999-01-15 09:30:10.3026,-0.5894,2.5791,-10.17,4.03,0.14,1.65
1999-01-15 09:30:10.3718,-0.9311,2.4924,-9.3131,6.06,4.36,-2.2
1999-01-15 09:30:10.4410,-0.6624,2.4056,-9.0845,1.99,6.18,-5.99
1999-01-15 09:30:10.5102,-0.3608,1.891,-9.7397,-0.75,6.79,-7.06
1999-01-15 09:30:10.5794,-0.2854,1.3734,-9.4238,4.58,8.65,-7.52
1999-01-15 09:30:10.6486,-0.4799,1.1866,-10.3818,7.77,4.7,-10.05
1999-01-15 09:30:10.7179,-1.2441,0.9371,-9.5542,17.32,1.09,-15.15
1999-01-15 09:30:10.7871,-2.0968,0.9335,-9.3867,17.16,-27.11,-33.28
1999-01-15 09:30:10.8563,-3.5306,1.3913,-9.5997,1.86,-24.88,-64.16
1999-01-15 09:30:10.9255,-2.2255,3.1728,-8.6051,-12.64,-20.04,-81.73
1999-01-15 09:30:10.9947,-0.9156,3.4905,-8.6919,-30.81,-33.1,-83.98
1999-01-15 09:30:11.0639,-1.6013,2.9915,-8.7996,-44.84,-40.01,-52.02
1999-01-15 09:30:11.1331,-2.9849,3.0417,-10.0647,-50.72,-30.16,-43.61
1999-01-15 09:30:11.2023,-2.3966,3.2374,-11.4865,-61.18,-17.32,-40.23
1999-01-15 09:30:11.2715,-2.8269,3.3756,-10.4297,-28.02,-2.41,-18.87
1999-01-15 09:30:11.3407,-3.7706,3.4959,-9.258,-22.72,9.33,-3.52
1999-01-15 09:30:11.4099,-4.5874,3.0435,-8.7488,-20.55,7.09,16.39
1999-01-15 09:30:11.4792,-4.7191,3.1841,-8.346,-7.41,5.43,19.88
1999-01-15 09:30:11.5484,-5.5371,2.32,-7.2563,2.25,7.19,16.42
1999-01-15 09:30:11.6176,-5.0727,2.2111,-8.2718,-9.64,4.59,-2.36
1999-01-15 09:30:11.6868,-4.3768,2.9442,-8.0684,0.22,7.05,-19.24
1999-01-15 09:30:11.7560,-3.8705,3.6401,-9.2041,0.57,5.34,-27.66
1999-01-15 09:30:11.8252,-4.1051,3.755,-8.6189,13.31,-4.9,-22.7
1999-01-15 09:30:11.8944,-3.2835,3.4121,-8.7649,34.97,-23.41,-22.95
1999-01-15 09:30:11.9636,-4.1069,2.0256,-8.6386,39.92,-4.79,-41.26
1999-01-15 09:30:12.0328,-4.5282,1.8425,-8.3017,26.51,22.79,-35.53
1999-01-15 09:30:12.1020,-5.5532,2.1297,-9.3705,3.73,30.18,-13.69
1999-01-15 09:30:12.1713,-5.7729,1.9951,-9.2927,0.5,25.58,9.79
1999-01-15 09:30:12.2405,-5.2858,1.5349,-9.045,19.93,38.12,11.44
1999-01-15 09:30:12.3097,-5.1858,0.6798,-9.4274,8.61,39.67,36.51
1999-01-15 09:30:12.3789,-4.4282,0.8521,-9.8163,12.18,21.45,31.61
1999-01-15 09:30:12.4481,-3.2607,1.4051,-8.5674,16.33,16.07,27.93
1999-01-15 09:30:12.5173,-2.5905,1.2267,-8.4872,22.43,14.74,33.07
1999-01-15 09:30:12.5865,-1.3644,1.3728,-7.8625,29.12,13.32,47.61
1999-01-15 09:30:12.6557,-1.7348,1.2902,-9.5518,32.0,-8.87,71.74
1999-01-15 09:30:12.7249,-3.22,1.0783,-12.1196,35.35,-33.44,88.19
1999-01-15 09:30:12.7941,-3.0411,-0.1945,-12.2704,2.66,-11.41,53.64
1999-01-15 09:30:12.8634,-0.6379,-0.1065,-9.8546,7.69,6.35,32.22
1999-01-15 09:30:12.9326,0.3375,0.4327,-8.7517,12.72,13.42,31.38
1999-01-15 09:30:13.0018,-0.4817,0.4715,-9.179,15.96,0.45,39.1
1999-01-15 09:30:13.0710,-0.8049,0.7731,-9.9952,7.61,2.2,38.65
1999-01-15 09:30:13.1402,-1.0035,1.3596,-11.8503,9.54,1.51,45.25
1999-01-15 09:30:13.2094,-2.2063,1.6408,-10.8982,31.48,0.06,61.28
1999-01-15 09:30:13.2786,-4.1015,1.7587,-8.8254,53.37,-7.64,60.56
1999-01-15 09:30:13.3478,-4.5551,1.7503,-7.8565,51.92,-18.96,51.82
1999-01-15 09:30:13.4170,-2.9962,1.1274,-6.3521,26.63,-17.78,41.51
1999-01-15 09:30:13.4862,-3.1411,-0.4596,-9.9928,-21.18,-25.36,26.29
1999-01-15 09:30:13.5555,-3.4995,-2.1836,-13.1656,-15.4,-11.69,29.69
1999-01-15 09:30:13.6247,-3.8645,-2.1411,-9.7631,4.28,12.63,14.94
1999-01-15 09:30:13.6954,-2.019,-1.1621,-8.4232,20.36,14.41,16.42
1999-01-15 09:30:13.7645,-2.6869,-1.1687,-9.3693,20.35,9.07,35.71
1999-01-15 09:30:13.8337,-5.2528,-1.6241,-10.6158,33.96,-1.34,41.17
1999-01-15 09:30:13.9029,-6.9386,-2.0705,-10.702,57.02,-15.89,15.22
1999-01-15 09:30:13.9720,-5.8734,-1.1071,-9.6278,102.57,-91.66,-5.0
1999-01-15 09:30:14.0412,-2.402,-1.1681,-8.595,99.06,-66.64,-11.24
1999-01-15 09:30:14.1104,-2.9974,-1.7444,-4.36,63.65,-19.93,1.86
1999-01-15 09:30:14.1795,-2.8957,-2.7832,-6.1852,-25.97,44.1,5.59
1999-01-15 09:30:14.2487,-1.8982,-2.6037,-8.419,-61.8,64.01,-1.57
1999-01-15 09:30:14.3179,-4.5024,-3.5647,-11.9257,-41.98,26.4,18.7
1999-01-15 09:30:14.3870,-2.7491,-2.7682,-11.7258,-26.36,47.08,21.46
1999-01-15 09:30:14.4562,-2.6815,-2.8155,-8.4364,9.0,29.39,41.45
1999-01-15 09:30:14.5253,-3.1865,-3.1099,-9.5734,11.84,19.53,42.69
1999-01-15 09:30:14.5945,-3.1183,-3.0459,-10.0467,33.19,18.12,45.01
1999-01-15 09:30:14.6637,-2.5809,-3.1069,-10.2897,7.88,20.99,26.15
1999-01-15 09:30:14.7328,-0.4955,-1.511,-9.8109,12.33,42.78,38.26
1999-01-15 09:30:14.8020,-2.1603,-1.6001,-8.4681,20.98,22.22,69.96
1999-01-15 09:30:14.8712,-4.5581,-1.7928,-7.8817,14.31,11.18,64.23
1999-01-15 09:30:14.9403,-2.7778,-0.4452,-8.9576,-36.21,-4.36,52.77
1999-01-15 09:30:15.0095,-3.2859,-0.2424,-9.2789,-18.28,34.23,27.98
1999-01-15 09:30:15.0787,-2.7688,-0.69,-10.3722,13.8,26.0,18.94
1999-01-15 09:30:15.1478,-2.3757,-1.4721,-10.2095,24.78,35.19,-12.17
1999-01-15 09:30:15.2170,-1.724,-1.1112,-9.9911,4.26,-8.92,-6.13
1999-01-15 09:30:15.2861,-2.6635,-1.1118,-10.2897,-2.71,6.03,-11.93
1999-01-15 09:30:15.3553,-2.3906,-1.5876,-10.319,20.12,56.43,-12.63
1999-01-15 09:30:15.4245,-0.4243,-0.7031,-9.2706,-2.03,55.74,-18.78
1999-01-15 09:30:15.4936,-0.6439,-0.8844,-11.6588,16.22,-62.91,-11.99
1999-01-15 09:30:15.5628,-1.8299,-1.7306,-8.6392,17.05,-26.54,-8.56
1999-01-15 09:30:15.6320,-1.821,-1.5176,-10.0347,14.37,-15.43,-0.43
1999-01-15 09:30:15.7011,-2.0549,-1.3596,-8.8948,7.33,-2.63,-4.29
1999-01-15 09:30:15.7703,-2.1447,-1.5391,-10.0168,8.4,0.83,-7.63
1999-01-15 09:30:15.8395,-2.3595,-1.9047,-8.872,6.17,0.63,-7.9
1999-01-15 09:30:15.9086,-2.7473,-1.9496,-9.4441,2.7,7.24,-8.46
1999-01-15 09:30:15.9778,-2.5247,-2.0585,-10.3268,5.54,21.81,-15.39
1999-01-15 09:30:16.0469,-1.8646,-3.0363,-9.6057,8.44,1.85,-7.17
1999-01-15 09:30:16.1161,-2.0735,-2.0017,-9.264,6.76,-1.1,2.65
1999-01-15 09:30:16.1853,-1.8252,-2.1926,-9.4232,3.12,6.44,-1.23
1999-01-15 09:30:16.2544,-1.7103,-2.2937,-9.5045,0.11,4.16,2.68
1999-01-15 09:30:16.3236,-1.5116,-2.2219,-9.4944,-1.93,-1.66,1.88
1999-01-15 09:30:16.3928,-1.4374,-2.8395,-9.8821,-3.79,11.73,6.48
1999-01-15 09:30:16.4619,-1.511,-2.4834,-9.705,-1.17,9.49,16.59
1999-01-15 09:30:16.5311,-1.9065,-2.0771,-8.4777,-14.11,0.52,24.53
1999-01-15 09:30:16.6003,-2.7138,-0.3046,-9.4136,-21.53,14.03,16.9
1999-01-15 09:30:16.6694,-2.2375,-0.8138,-11.0263,-14.17,31.26,-13.34
1999-01-15 09:30:16.7386,-1.0484,-2.1974,-10.0335,5.77,9.19,-28.54
1999-01-15 09:30:16.8077,-0.8126,-2.0992,-9.6182,-5.22,7.25,-12.31
1999-01-15 09:30:16.8769,-1.0143,-1.1729,-9.541,-13.2,8.1,-9.53
1999-01-15 09:30:16.9461,-0.7869,-1.3177,-9.3065,-15.23,23.27,-10.52
1999-01-15 09:30:17.0152,-0.921,-0.9257,-9.8205,-23.0,20.73,-10.84
1999-01-15 09:30:17.0844,-0.3178,-1.6402,-10.6385,-17.28,37.0,-13.5
1999-01-15 09:30:17.1536,-0.3644,-0.9778,-10.0407,-14.09,6.37,-6.13
1999-01-15 09:30:17.2227,-0.6511,-0.4871,-9.5063,-12.5,-1.16,-4.38
1999-01-15 09:30:17.2919,-1.0179,-0.0162,-10.1508,-17.25,10.39,-1.92
1999-01-15 09:30:17.3611,-1.1136,0.8497,-10.7474,-3.54,4.52,-14.21
1999-01-15 09:30:17.4302,0.2005,-0.7432,-11.9526,10.21,24.44,-18.4
1999-01-15 09:30:17.4994,0.3644,-0.8408,-10.5177,21.87,-18.65,-6.57
1999-01-15 09:30:17.5686,0.4602,-1.2237,-10.0605,22.92,0.78,12.02
1999-01-15 09:30:17.6377,-0.1137,-0.757,-8.717,17.96,-28.66,31.73
1999-01-15 09:30:17.7069,-0.8641,-0.6954,-8.9313,9.27,-7.79,30.9
1999-01-15 09:30:17.7760,-1.8108,-0.386,-9.8067,10.57,-27.53,35.46
1999-01-15 09:30:17.8452,-3.0375,0.076,-9.4776,8.16,-30.51,23.89
1999-01-15 09:30:17.9144,-3.5635,-1.1501,-9.7864,44.28,-47.06,25.74
1999-01-15 09:30:17.9835,-3.2589,-2.3559,-10.9563,15.04,-32.3,11.61
1999-01-15 09:30:18.0527,-3.0148,-1.2489,-8.9821,8.47,-52.52,23.8
1999-01-15 09:30:18.1219,-2.7826,-1.0281,-9.8049,40.64,-9.68,16.37
1999-01-15 09:30:18.1910,-2.1842,-1.6217,-8.1868,-12.08,2.36,21.48
1999-01-15 09:30:18.2602,-2.4972,-1.6803,-9.5602,-3.29,14.82,13.3
1999-01-15 09:30:18.3294,-2.5426,-3.4636,-9.5889,1.59,23.05,2.76
1999-01-15 09:30:18.3985,-2.5462,-4.0087,-9.4351,0.68,17.55,0.32
1999-01-15 09:30:18.4677,-2.5809,-2.6916,-9.6912,-17.51,46.35,-1.3
1999-01-15 09:30:18.5368,-2.2811,-2.7611,-11.1753,-3.26,27.81,-11.1
1999-01-15 09:30:18.6060,-1.9239,-2.5947,-9.4956,6.28,14.39,3.86
1999-01-15 09:30:18.6752,-2.0508,-1.4164,-9.3274,4.69,9.05,6.86
1999-01-15 09:30:18.7443,-1.5026,-1.6396,-9.2389,13.02,15.08,-2.45
1999-01-15 09:30:18.8135,-1.0305,-2.9508,-10.9054,8.37,21.74,-1.53
1999-01-15 09:30:18.8827,-0.9964,-2.2393,-9.1246,4.5,1.61,12.79
1999-01-15 09:30:18.9518,-1.1418,-2.0819,-9.8403,2.05,4.14,18.56
1999-01-15 09:30:19.0210,-1.3716,-2.0825,-9.4459,2.85,-0.3,17.94
1999-01-15 09:30:19.0902,-1.6965,-1.9508,-9.6733,-2.37,7.85,19.54
1999-01-15 09:30:19.1593,-1.6367,-1.8467,-9.7792,-1.54,4.0,14.78
1999-01-15 09:30:19.2285,-1.5702,-1.7007,-10.404,-1.36,0.97,11.01
1999-01-15 09:30:19.2976,-1.5218,-1.9377,-9.0707,-0.38,-1.88,8.07
1999-01-15 09:30:19.3668,-1.8162,-1.806,-10.1676,-3.24,2.42,5.43
1999-01-15 09:30:19.4360,-1.8347,-1.958,-9.699,-1.76,-8.1,0.63
1999-01-15 09:30:19.5051,-1.9951,-1.9311,-9.6404,-1.23,-2.3,1.01
1999-01-15 09:30:19.5743,-2.0932,-1.4218,-9.641,-0.75,-5.61,-0.53
1999-01-15 09:30:19.6435,-2.1339,-1.3327,-8.7667,-6.06,-8.31,-3.08
1999-01-15 09:30:19.7126,-2.5379,-0.8964,-8.4202,-6.57,2.75,-10.5
1999-01-15 09:30:19.7818,-1.9466,-2.861,-12.5469,-2.98,55.49,-16.84
1999-01-15 09:30:19.8510,-1.134,-3.1399,-11.9329,20.28,-20.66,3.45
1999-01-15 09:30:19.9201,-2.1692,-1.8964,-6.5771,11.5,-14.91,29.21
1999-01-15 09:30:19.9893,-2.8939,-1.8138,-9.2371,4.36,14.5,34.03
1999-01-15 09:30:20.0584,-3.1464,-1.1998,-10.5003,-0.98,12.73,31.45
1999-01-15 09:30:20.1276,-3.1428,-0.7875,-10.8157,5.94,4.35,19.22
1999-01-15 09:30:20.1968,-2.9436,-0.675,-7.9684,1.95,-16.06,12.25
1999-01-15 09:30:20.2659,-3.0794,-0.7115,-9.0426,-10.13,8.25,-2.43
1999-01-15 09:30:20.3351,-2.4194,-0.7492,-10.4411,-12.76,6.57,-22.94
1999-01-15 09:30:20.4043,-1.207,-1.9365,-10.9491,3.44,9.26,-43.15
1999-01-15 09:30:20.4734,-0.7378,-2.5205,-8.881,3.35,4.38,-33.04
1999-01-15 09:30:20.5426,-0.8683,-2.0843,-9.7559,-5.73,9.12,-17.54
1999-01-15 09:30:20.6118,-1.289,-1.1412,-9.5255,-9.01,4.84,-10.19
1999-01-15 09:30:20.6809,-1.213,-1.6678,-9.9863,-11.09,13.02,-9.64
1999-01-15 09:30:20.7501,-1.1005,-1.9532,-10.079,-8.66,11.48,-10.56
1999-01-15 09:30:20.8192,-0.9934,-2.1489,-9.8564,-6.39,5.08,-1.67
1999-01-15 09:30:20.8884,-1.2926,-1.3913,-10.2759,-6.97,6.43,1.93
1999-01-15 09:30:20.9576,-1.2154,-1.2471,-9.9498,-2.2,4.16,3.5
1999-01-15 09:30:21.0267,-1.1735,-1.2902,-9.6027,-2.75,5.56,3.32
1999-01-15 09:30:21.0959,-1.2267,-1.1747,-9.8061,-3.05,7.63,3.88
1999-01-15 09:30:21.1651,-1.0287,-1.3279,-9.8648,-3.26,1.5,5.19
1999-01-15 09:30:21.2342,-1.2255,-0.9216,-9.8319,-7.04,6.9,5.04
1999-01-15 09:30:21.3034,-1.0275,-1.1166,-10.0976,-5.02,6.88,5.98
1999-01-15 09:30:21.3726,-0.9329,-1.2746,-9.9252,-2.98,4.78,7.18
1999-01-15 09:30:21.4417,-1.0209,-1.1531,-10.0982,-3.5,7.04,11.86
1999-01-15 09:30:21.5109,-1.216,-0.9293,-10.1305,-3.4,5.59,13.04
1999-01-15 09:30:21.5801,-1.3261,-0.818,-9.9791,-1.52,0.72,11.28
1999-01-15 09:30:21.6492,-1.3249,-0.8384,-10.1867,0.46,0.52,6.19
1999-01-15 09:30:21.7184,-1.2309,-0.7977,-10.2274,0.3,1.51,3.65
1999-01-15 09:30:21.7875,-1.119,-0.742,-9.5464,-0.42,-2.12,0.72
1999-01-15 09:30:21.8567,-1.0257,-0.8073,-9.9797,-0.66,-0.8,0.32
1999-01-15 09:30:21.9259,-0.9856,-0.921,-9.9324,-0.96,0.8,0.04
1999-01-15 09:30:21.9950,-1.1124,-0.9311,-9.927,-1.46,3.09,2.3
1999-01-15 09:30:22.0642,-1.268,-0.8114,-10.2053,-0.3,1.47,2.61
1999-01-15 09:30:22.1334,-1.3321,-0.8174,-9.9946,1.06,0.53,0.5
1999-01-15 09:30:22.2025,-1.3063,-0.8587,-9.9354,2.0,0.04,-1.83
1999-01-15 09:30:22.2717,-1.2112,-0.9114,-10.1736,1.8,-0.09,-1.87
1999-01-15 09:30:22.3409,-1.2052,-0.8468,-9.7864,1.12,2.0,-1.82
1999-01-15 09:30:22.4100,-1.2393,-0.8246,-10.0174,2.03,1.3,-2.19
1999-01-15 09:30:22.4792,-1.1765,-0.9742,-10.018,1.09,-0.52,-2.53
1999-01-15 09:30:22.5483,-1.146,-0.9898,-9.8403,1.35,0.26,-2.1
1999-01-15 09:30:22.6175,-1.2417,-0.9168,-10.0096,0.35,2.26,-0.66
1999-01-15 09:30:22.6867,-1.2154,-0.9904,-9.7625,-1.22,0.18,-0.48
1999-01-15 09:30:22.7558,-1.3865,-0.8677,-10.0042,-1.34,1.92,-0.11
1999-01-15 09:30:22.8250,-1.4607,-0.8348,-9.921,0.34,-2.4,-0.82
1999-01-15 09:30:22.8942,-1.3404,-1.0053,-9.9414,1.37,-0.83,-2.35
1999-01-15 09:30:22.9633,-1.3656,-0.7468,-9.8145,0.19,2.03,-0.89
1999-01-15 09:30:23.0325,-1.3195,-0.7809,-9.9629,-1.11,2.69,-1.88
1999-01-15 09:30:23.1017,-1.2644,-0.8904,-9.9133,-1.7,1.88,-1.72
1999-01-15 09:30:23.1708,-1.4637,-0.7325,-9.6733,-3.64,2.98,-0.41
1999-01-15 09:30:23.2400,-1.4577,-0.9557,-10.2047,-3.85,2.63,-1.11
1999-01-15 09:30:23.3091,-1.4338,-0.7983,-10.0766,-2.42,5.14,-3.22
1999-01-15 09:30:23.3783,-1.2136,-0.9557,-9.7068,-0.49,-0.68,-1.29
1999-01-15 09:30:23.4475,-1.3237,-0.7217,-9.9097,-0.81,0.17,-0.72
1999-01-15 09:30:23.5166,-1.3728,-0.8671,-9.9671,-1.41,2.44,-1.44
1999-01-15 09:30:23.5858,-1.5224,-0.7229,-10.1472,-1.8,4.04,-0.95
1999-01-15 09:30:23.6550,-1.4146,-0.8773,-9.8768,-0.25,2.54,-1.52
1999-01-15 09:30:23.7241,-1.423,-0.7612,-10.0359,-0.65,1.72,-0.77
1999-01-15 09:30:23.7933,-1.4278,-0.6912,-9.9755,0.59,0.28,-1.5
1999-01-15 09:30:23.8625,-1.3315,-0.7612,-9.9743,0.42,1.86,-1.66
1999-01-15 09:30:23.9316,-1.2728,-0.8635,-9.7565,0.38,3.12,-0.71
1999-01-15 09:30:24.0008,-1.5259,-0.6116,-9.9767,-0.15,4.14,-0.38
1999-01-15 09:30:24.0699,-1.4589,-0.7444,-9.8492,-0.52,1.71,-1.02
1999-01-15 09:30:24.1391,-1.4398,-0.7815,-10.1065,-1.57,4.31,-2.4
1999-01-15 09:30:24.2083,-1.417,-0.6092,-9.8576,-2.55,3.9,-2.5
1999-01-15 09:30:24.2774,-1.3913,-0.69,-10.1329,-1.01,5.59,-5.01
1999-01-15 09:30:24.3466,-1.201,-1.1035,-9.8935,-0.26,2.88,-3.3
1999-01-15 09:30:24.4158,-1.3117,-0.8073,-9.9504,-2.68,6.22,-0.98
1999-01-15 09:30:24.4849,-1.1759,-0.6265,-9.8498,-4.62,10.31,-2.49
1999-01-15 09:30:24.5541,-1.0765,-0.4871,-10.1407,-5.64,13.75,-2.74
1999-01-15 09:30:24.6233,-0.9425,-0.5176,-9.9641,-4.65,10.44,-2.91
1999-01-15 09:30:24.6924,-0.9987,-0.3979,-10.0772,-4.82,8.38,-1.53
1999-01-15 09:30:24.7616,-0.9245,-0.5069,-10.0844,-1.78,4.0,-1.02
1999-01-15 09:30:24.8308,-0.8982,-0.4698,-10.088,-0.8,1.58,-1.02
1999-01-15 09:30:24.8999,-0.8916,-0.4769,-9.9737,-0.55,2.16,0.39
1999-01-15 09:30:24.9691,-0.9557,-0.4704,-9.8014,0.21,0.01,1.51
1999-01-15 09:30:25.0382,-0.9993,-0.5152,-10.1664,0.49,1.02,1.05
1999-01-15 09:30:25.1074,-1.0155,-0.45,-9.8415,2.29,-0.44,-0.43
1999-01-15 09:30:25.1766,-0.9987,-0.5463,-10.0826,1.84,0.87,0.33
1999-01-15 09:30:25.2457,-1.0873,-0.5314,-10.076,1.39,0.92,1.61
1999-01-15 09:30:25.3149,-1.0604,-0.517,-9.8744,2.18,1.29,0.46
1999-01-15 09:30:25.3841,-1.0083,-0.6253,-9.8786,1.74,-0.22,0.67
1999-01-15 09:30:25.4532,-1.0975,-0.5829,-10.1772,1.58,0.98,0.85
1999-01-15 09:30:25.5224,-1.0628,-0.62,-9.9887,1.6,2.77,-0.43
1999-01-15 09:30:25.5916,-1.1023,-0.584,-9.9085,0.6,2.56,0.64
1999-01-15 09:30:25.6607,-1.1603,-0.602,-10.1197,-0.15,2.49,0.25
1999-01-15 09:30:25.7299,-1.0933,-0.66,-10.03,-0.23,3.5,-0.92
1999-01-15 09:30:25.7990,-1.1035,-0.6086,-10.0539,-0.86,2.54,-0.63
1999-01-15 09:30:25.8682,-1.0598,-0.6577,-10.0282,-0.41,2.49,-0.76
1999-01-15 09:30:25.9374,-1.0741,-0.5122,-9.9498,-0.19,0.96,-1.44
1999-01-15 09:30:26.0065,-1.0149,-0.5769,-10.0455,-0.88,3.6,-0.33
1999-01-15 09:30:26.0757,-1.0969,-0.5511,-9.9504,-2.22,4.65,0.22
1999-01-15 09:30:26.1449,-1.0275,-0.5434,-9.8792,-0.81,1.67,0.04
1999-01-15 09:30:26.2140,-1.0125,-0.5152,-10.176,-2.76,5.2,0.11
1999-01-15 09:30:26.2832,-1.0424,-0.4327,-10.1215,-0.61,4.26,0.4
1999-01-15 09:30:26.3524,-0.9281,-0.468,-10.082,-1.41,4.0,0.48
1999-01-15 09:30:26.4215,-0.9545,-0.298,-9.8636,-2.54,4.7,0.39
1999-01-15 09:30:26.4907,-0.994,-0.3573,-9.872,-0.55,3.37,0.79
1999-01-15 09:30:26.5598,-0.9987,-0.4817,-10.0784,-0.39,1.51,0.92
1999-01-15 09:30:26.6290,-0.9874,-0.3848,-10.0539,-0.44,2.64,0.14
1999-01-15 09:30:26.6982,-0.9581,-0.3967,-9.8911,0.96,1.46,1.27
1999-01-15 09:30:26.7673,-0.979,-0.3028,-10.0832,0.72,0.6,0.42
1999-01-15 09:30:26.8365,-0.9102,-0.368,-9.8456,0.22,0.66,-0.96
1999-01-15 09:30:26.9057,-0.9521,-0.462,-10.1939,0.05,2.82,0.73
1999-01-15 09:30:26.9748,-1.052,-0.3728,-10.0377,0.6,1.72,1.08
1999-01-15 09:30:27.0440,-0.9593,-0.4159,-9.918,0.64,1.46,0.34
1999-01-15 09:30:27.1132,-1.0041,-0.4177,-9.8313,0.16,0.42,0.87
1999-01-15 09:30:27.1823,-1.0646,-0.441,-10.1149,0.07,-0.86,-0.56
1999-01-15 09:30:27.2515,-1.0508,-0.395,-10.0305,0.07,2.27,0.11
1999-01-15 09:30:27.3206,-1.0388,-0.3776,-10.0545,-0.16,1.75,0.1
1999-01-15 09:30:27.3898,-1.0406,-0.3782,-9.936,-1.82,2.92,0.18
1999-01-15 09:30:27.4590,-1.0352,-0.4213,-10.1119,-0.93,2.64,-0.67
1999-01-15 09:30:27.5281,-1.0185,-0.4997,-9.9246,0.2,1.72,0.26
1999-01-15 09:30:27.5973,-1.1017,-0.3112,-10.1442,0.77,0.52,0.81
1999-01-15 09:30:27.6665,-1.0203,-0.4614,-9.9629,0.22,0.6,0.44
1999-01-15 09:30:27.7356,-1.04,-0.4949,-9.945,1.06,0.48,0.9
1999-01-15 09:30:27.8048,-1.0586,-0.3716,-10.021,1.06,-0.03,0.44
1999-01-15 09:30:27.8740,-1.0765,-0.3746,-10.0802,0.88,2.55,-0.02
1999-01-15 09:30:27.9431,-1.1753,-0.386,-10.0162,1.42,3.34,0.85
1999-01-15 09:30:28.0123,-1.1579,-0.4356,-9.8235,0.65,0.04,0.49
1999-01-15 09:30:28.0815,-1.2118,-0.4727,-9.8983,-0.04,0.03,-0.19
1999-01-15 09:30:28.1506,-1.4003,-0.3985,-10.2382,1.09,-1.23,-2.64
1999-01-15 09:30:28.2198,-1.0927,-0.7977,-9.9923,1.47,-0.26,-3.66
1999-01-15 09:30:28.2889,-1.4799,-0.5565,-9.5129,-2.51,-3.11,-2.91
1999-01-15 09:30:28.3581,-2.022,0.0036,-10.0503,-7.12,2.87,-8.87
1999-01-15 09:30:28.4273,-1.9777,-0.0287,-10.7343,-4.92,-1.05,-21.66
1999-01-15 09:30:28.4964,-1.5194,-0.1813,-9.9659,-3.02,1.7,-30.6
1999-01-15 09:30:28.5656,-1.1077,-0.3997,-10.4841,1.01,3.99,-36.12
1999-01-15 09:30:28.6348,-0.6989,-0.7414,-9.7445,3.48,0.22,-32.65
1999-01-15 09:30:28.7039,-0.7366,-0.5601,-9.9743,1.58,5.55,-23.9
1999-01-15 09:30:28.7731,-0.9485,-0.1729,-9.7589,1.4,0.73,-17.03
1999-01-15 09:30:28.8423,-0.8114,-0.538,-9.8612,-0.02,1.85,-13.18
1999-01-15 09:30:28.9114,-0.7001,-0.8904,-9.8971,-0.56,0.75,-6.94
1999-01-15 09:30:28.9806,-0.9132,-0.7378,-10.1628,-0.59,3.77,-0.6
1999-01-15 09:30:29.0497,-0.8611,-0.8557,-10.1042,0.79,1.54,4.83
1999-01-15 09:30:29.1189,-0.9964,-0.7295,-9.9103,0.83,4.96,9.7
1999-01-15 09:30:29.1881,-1.2453,-0.5523,-9.8432,-0.31,2.33,12.36
1999-01-15 09:30:29.2572,-1.5571,-0.4967,-9.9958,-0.52,3.4,11.17
1999-01-15 09:30:29.3264,-1.6755,-0.6421,-10.2669,-1.14,3.79,8.73
1999-01-15 09:30:29.3956,-1.5218,-0.7007,-10.2328,1.58,-2.03,6.07
1999-01-15 09:30:29.4647,-1.3787,-0.7079,-10.1131,3.01,-2.33,4.02
1999-01-15 09:30:29.5339,-1.1956,-0.7103,-9.775,4.23,-2.5,4.35
1999-01-15 09:30:29.6031,-1.3446,-0.3261,-9.7828,1.63,1.15,4.94
1999-01-15 09:30:29.6722,-1.3865,-0.4159,-9.9127,-0.1,0.75,4.29
1999-01-15 09:30:29.7414,-1.3231,-0.684,-10.091,0.16,2.8,2.22
1999-01-15 09:30:29.8105,-1.3339,-0.7755,-9.8654,-0.29,3.69,3.4
1999-01-15 09:30:29.8797,-1.5206,-0.6792,-10.091,0.33,3.79,4.2
1999-01-15 09:30:29.9489,-1.5978,-0.5571,-9.9928,1.85,3.72,3.74
1999-01-15 09:30:30.0180,-1.4272,-0.7486,-9.7044,5.02,4.63,1.52
1999-01-15 09:30:30.0872,-1.2273,-0.8791,-10.2789,5.47,8.71,-2.63
1999-01-15 09:30:30.1564,-1.3452,-0.7474,-10.0635,9.7,-0.43,-3.53
1999-01-15 09:30:30.2255,-1.3728,-0.8138,-9.8253,6.64,-1.24,-7.13
1999-01-15 09:30:30.2947,-1.2944,-0.6852,-9.924,2.24,2.06,-8.51
1999-01-15 09:30:30.3639,-1.2495,-0.827,-9.9085,-0.46,1.54,-3.28
1999-01-15 09:30:30.4330,-1.2519,-0.7761,-9.9426,-0.95,2.63,0.79
1999-01-15 09:30:30.5022,-1.1992,-0.9114,-9.9438,-1.22,7.03,-0.12
1999-01-15 09:30:30.5713,-0.9964,-1.2459,-10.0335,-1.29,9.76,0.88
1999-01-15 09:30:30.6405,-1.0448,-1.0179,-9.851,-0.61,9.07,1.72
1999-01-15 09:30:30.7097,-1.0747,-1.2417,-10.1137,1.97,9.56,2.37
1999-01-15 09:30:30.7788,-1.1483,-1.1268,-9.8486,3.33,2.77,3.32
1999-01-15 09:30:30.8480,-1.2226,-1.0095,-10.0778,2.32,2.04,2.89
1999-01-15 09:30:30.9172,-1.0352,-1.1986,-10.0264,1.37,-2.33,1.23
1999-01-15 09:30:30.9863,-0.5739,-2.1106,-10.6367,13.9,-0.24,-11.1
1999-01-15 09:30:31.0555,-0.4482,-2.5654,-9.2251,11.11,-0.03,1.23
1999-01-15 09:30:31.1247,-1.1472,-1.5457,-10.0946,17.38,-1.08,3.68
1999-01-15 09:30:31.1938,-1.5182,-1.1047,-9.9869,11.66,-1.42,8.58
1999-01-15 09:30:31.2630,-1.7683,-0.5009,-9.6476,8.84,1.14,2.27
1999-01-15 09:30:31.3322,-1.9,-0.7259,-9.5297,-7.02,1.82,-1.94
1999-01-15 09:30:31.4013,-1.1938,-1.7246,-9.4154,1.0,8.08,-21.06
1999-01-15 09:30:31.4705,-0.8037,-1.9915,-10.2831,-2.63,17.46,-15.0
1999-01-15 09:30:31.5396,-0.8599,-1.5577,-10.2484,-11.44,11.08,-8.36
1999-01-15 09:30:31.6088,-0.7462,-1.2734,-9.1676,-8.08,6.25,-7.03
1999-01-15 09:30:31.6780,-0.8749,-0.9485,-10.4028,-8.82,14.69,-5.24
1999-01-15 09:30:31.7471,-0.6343,-1.1807,-9.9534,-6.96,5.91,-5.3
1999-01-15 09:30:31.8163,-0.4811,-1.371,-9.9438,-19.55,10.54,-8.53
1999-01-15 09:30:31.8855,-0.6888,-1.0388,-10.3818,-10.56,6.97,-6.27
1999-01-15 09:30:31.9546,-0.4255,-1.3817,-10.0228,-9.71,11.1,-5.11
1999-01-15 09:30:32.0238,-0.1843,-1.2483,-10.3052,-4.26,9.3,2.84
1999-01-15 09:30:32.0930,-0.5649,-0.2699,-10.03,-7.16,5.98,2.76
1999-01-15 09:30:32.1621,-0.3561,-0.5481,-9.72,-3.84,0.66,6.07
1999-01-15 09:30:32.2313,-0.6128,-0.3333,-9.8415,-0.96,2.7,-0.14
1999-01-15 09:30:32.3004,-0.4303,-0.7516,-10.0653,-4.38,3.74,2.83
1999-01-15 09:30:32.3696,-0.541,-0.7307,-10.0856,-6.41,0.26,1.55
1999-01-15 09:30:32.4388,-0.6122,-0.6134,-9.9677,-5.13,-5.48,3.34
1999-01-15 09:30:32.5079,-0.6876,-0.4853,-9.9845,-4.55,0.31,-0.85
1999-01-15 09:30:32.5771,-0.4225,-0.8288,-10.3639,-2.07,-0.56,-2.85
1999-01-15 09:30:32.6463,-0.3166,-0.9616,-10.4058,4.04,-2.66,-1.3
1999-01-15 09:30:32.7154,-0.7157,-0.5661,-10.0479,8.05,-9.28,-1.49
1999-01-15 09:30:32.7846,-0.6792,-0.7797,-9.8899,6.25,-2.23,-1.78
1999-01-15 09:30:32.8538,-0.8659,-0.4237,-9.7972,2.62,1.78,0.32
1999-01-15 09:30:32.9229,-0.8294,-0.5176,-9.6559,2.56,1.05,1.46
1999-01-15 09:30:32.9921,-0.9802,-0.5428,-9.9192,-2.13,3.07,2.91
1999-01-15 09:30:33.0612,-0.9862,-0.6463,-10.1143,-1.36,3.47,0.96
1999-01-15 09:30:33.1304,-0.7743,-0.8539,-10.1532,-0.53,1.43,0.68
1999-01-15 09:30:33.1996,-0.763,-0.8252,-9.9629,-0.35,1.82,2.12
1999-01-15 09:30:33.2687,-0.8964,-0.5212,-10.2759,0.0,2.24,2.27
1999-01-15 09:30:33.3379,-0.763,-0.7295,-10.003,-1.23,6.76,-0.41
1999-01-15 09:30:33.4071,-0.6989,-0.833,-9.9803,-0.49,2.14,0.76
1999-01-15 09:30:33.4762,-0.7791,-0.5852,-10.3262,0.52,2.45,0.55
1999-01-15 09:30:33.5454,-0.7217,-0.5314,-9.8792,-0.32,0.59,2.2
1999-01-15 09:30:33.6146,-0.7839,-0.4859,-10.0168,-1.7,3.9,3.59
1999-01-15 09:30:33.6837,-0.7636,-0.6038,-9.9851,-1.73,3.08,2.11
1999-01-15 09:30:33.7529,-0.815,-0.6559,-9.9097,-1.43,2.95,1.35
1999-01-15 09:30:33.8220,-0.8456,-0.7797,-10.1807,-0.38,1.58,1.4
1999-01-15 09:30:33.8912,-0.9646,-0.739,-10.0928,2.02,1.64,1.49
1999-01-15 09:30:33.9614,-0.8246,-0.964,-10.2017,-0.46,-1.95,5.09
1999-01-15 09:30:34.0303,-1.216,-0.076,-9.8875,-1.58,-0.31,1.56
1999-01-15 09:30:34.0993,-0.76,-0.3764,-9.5991,-0.97,7.66,-4.55
1999-01-15 09:30:34.1682,-0.3602,-0.6588,-10.3232,-2.81,7.13,-3.12
1999-01-15 09:30:34.2372,-0.3884,-0.4704,-9.6811,-3.67,3.81,1.15
1999-01-15 09:30:34.3061,-0.6152,-0.2525,-9.6739,-5.71,7.25,8.34
1999-01-15 09:30:34.3751,-0.7534,-0.3261,-10.316,-6.96,3.34,8.3
1999-01-15 09:30:34.4441,-0.6798,-0.6451,-10.2388,-3.69,2.82,7.91
1999-01-15 09:30:34.5130,-0.885,-0.5511,-10.4847,0.19,3.06,5.96
1999-01-15 09:30:34.5820,-0.7061,-0.6188,-10.599,3.83,-0.44,4.66
1999-01-15 09:30:34.6509,-0.31,-0.4159,-9.5434,2.28,-2.28,3.72
1999-01-15 09:30:34.7199,-0.1951,-0.1017,-9.7535,-7.94,18.37,7.18
1999-01-15 09:30:34.7888,-0.3369,-0.0365,-9.553,-4.36,9.85,9.44
1999-01-15 09:30:34.8578,-0.5069,-0.1221,-10.4075,-2.28,5.45,12.93
1999-01-15 09:30:34.9267,-0.6092,-0.4931,-10.7133,10.45,6.89,17.07
1999-01-15 09:30:34.9957,-0.6882,-0.4913,-10.4548,18.11,1.65,15.04
1999-01-15 09:30:35.0646,-0.7522,-0.5942,-9.9982,29.64,5.15,25.15
1999-01-15 09:30:35.1336,-0.6421,-0.903,-9.8109,23.98,-10.85,20.63
1999-01-15 09:30:35.2025,-0.5248,-1.116,-10.1299,7.94,5.93,12.29
1999-01-15 09:30:35.2715,-0.6469,-1.2668,-9.6129,14.51,2.37,10.97
1999-01-15 09:30:35.3405,-0.368,-1.5373,-10.3848,25.46,-0.46,6.71
1999-01-15 09:30:35.4094,-0.4973,-1.9592,-9.4716,24.29,-11.9,3.4
1999-01-15 09:30:35.4784,-0.6008,-2.1303,-9.7307,18.47,-14.04,-2.13
1999-01-15 09:30:35.5473,-0.7983,-2.1926,-9.2006,8.81,-4.73,1.02
1999-01-15 09:30:35.6163,-0.9377,-2.019,-9.7266,-0.07,-1.81,-8.05
1999-01-15 09:30:35.6852,-1.1489,-1.8868,-9.556,-2.52,4.32,-14.07
1999-01-15 09:30:35.7542,-0.9993,-2.1052,-9.6547,-5.33,14.19,-16.59
1999-01-15 09:30:35.8231,-0.8282,-1.9945,-9.8672,-6.55,12.49,-16.18
1999-01-15 09:30:35.8921,-0.6062,-2.1405,-9.5135,-14.51,18.45,-17.35
1999-01-15 09:30:35.9610,-0.0724,-1.4535,-10.2962,-22.02,5.77,-22.79
1999-01-15 09:30:36.0300,0.4201,-1.8682,-9.8863,-14.9,10.11,-21.15
1999-01-15 09:30:36.0990,0.3417,-1.5559,-10.1024,-5.92,10.61,-2.66
1999-01-15 09:30:36.1679,-0.888,-1.1077,-7.9259,13.62,-16.22,-18.17
1999-01-15 09:30:36.2369,-0.4698,-1.9179,-10.1143,10.04,-34.2,-23.62
1999-01-15 09:30:36.3058,-0.8815,-1.0867,-9.1114,-14.46,5.35,-1.91
1999-01-15 09:30:36.3748,-1.1932,-1.3279,-10.4099,13.77,29.38,-12.83
1999-01-15 09:30:36.4437,0.3698,-1.6773,-11.7282,-12.18,-48.32,2.38
1999-01-15 09:30:36.5127,-1.958,-1.9903,-7.537,-36.76,-47.68,8.93
1999-01-15 09:30:36.5816,-1.4254,-0.7498,-9.2251,-63.74,14.27,-23.35
1999-01-15 09:30:36.6506,-0.4075,-0.3375,-10.5266,-36.17,45.38,-61.9
1999-01-15 09:30:36.7195,0.7917,-0.1209,-10.8085,-62.24,100.59,-80.03
1999-01-15 09:30:36.7885,1.9628,0.438,-9.939,-11.18,72.58,-36.71
1999-01-15 09:30:36.8574,2.338,-0.462,-9.7481,32.12,31.7,-0.13
1999-01-15 09:30:36.9264,2.3218,-0.9251,-11.0975,43.28,-26.96,25.27
1999-01-15 09:30:36.9954,1.14,-1.0011,-9.9557,25.39,-29.83,13.51
1999-01-15 09:30:37.0643,0.5434,-0.915,-9.553,15.04,-7.77,-5.36
1999-01-15 09:30:37.1333,1.189,-1.2285,-10.1903,-0.04,-2.78,-9.84
1999-01-15 09:30:37.2022,1.7462,-1.5271,-9.9767,-31.61,21.76,-6.02
1999-01-15 09:30:37.2712,1.6923,-1.3165,-11.049,-27.96,-44.06,7.8
1999-01-15 09:30:37.3401,0.6774,-1.2716,-9.3765,7.29,-97.47,9.05
1999-01-15 09:30:37.4091,-2.0633,-0.1412,-11.3895,-27.99,-84.33,11.49
1999-01-15 09:30:37.4780,-2.5133,-0.6134,-8.5932,36.0,-65.29,20.33
1999-01-15 09:30:37.5470,-2.5139,-1.4398,-8.3077,52.77,-50.87,24.46
1999-01-15 09:30:37.6159,-2.9196,-0.2424,-8.4813,100.36,0.33,45.57
1999-01-15 09:30:37.6849,-2.724,-3.1488,-10.9042,226.18,-194.36,-15.67
1999-01-15 09:30:37.7539,-3.6623,-8.2078,-5.6616,67.66,-95.66,-21.7
1999-01-15 09:30:37.8228,-5.7669,-6.4491,-9.7152,-36.56,-51.14,5.01
1999-01-15 09:30:37.8918,-5.3947,-4.439,-5.8471,21.88,-35.2,-7.33
1999-01-15 09:30:37.9607,-5.4844,-5.2678,-7.2276,-1.31,14.49,-45.75
1999-01-15 09:30:38.0297,-4.1236,-5.9997,-6.7602,-34.86,5.14,-17.29
1999-01-15 09:30:38.0986,-3.4044,-6.2881,-7.376,-33.36,21.38,-17.09
1999-01-15 09:30:38.1676,-4.9997,-4.2619,-7.7853,7.15,-7.6,-3.31
1999-01-15 09:30:38.2365,-3.5342,-5.6382,-7.2216,-19.85,-9.7,15.58
1999-01-15 09:30:38.3055,-4.6604,-5.7531,-6.783,30.28,-14.07,44.24
1999-01-15 09:30:38.3744,-4.0046,-5.3713,-5.5215,37.5,36.48,18.64
1999-01-15 09:30:38.4434,-5.0907,-6.9045,-8.2694,61.86,58.16,7.27
1999-01-15 09:30:38.5123,-5.2098,-4.4905,-6.3539,37.49,60.66,-24.31
1999-01-15 09:30:38.5813,-3.3427,-5.8147,-6.0954,92.36,39.86,-28.76
1999-01-15 09:30:38.6503,-3.1728,-7.4275,-6.184,24.96,44.47,-33.11
1999-01-15 09:30:38.7192,-2.4834,-7.0947,-6.9086,-23.62,42.63,-40.84
1999-01-15 09:30:38.7882,-2.4756,-7.6279,-8.3311,-17.1,35.89,-42.31
1999-01-15 09:30:38.8571,-0.4871,-7.2928,-8.1815,1.59,-6.47,-16.19
1999-01-15 09:30:38.9261,-1.5421,-7.0529,-9.1407,43.9,-42.31,-12.3
1999-01-15 09:30:38.9950,-0.5398,-8.0139,-5.9985,-26.7,9.61,3.17
1999-01-15 09:30:39.0640,-0.3573,-5.8788,-8.6602,-74.4,18.11,14.57
1999-01-15 09:30:39.1329,-2.9573,-4.6233,-8.212,5.83,31.59,-18.24
1999-01-15 09:30:39.2019,0.3908,-8.6775,-8.0366,11.41,19.37,-46.45
1999-01-15 09:30:39.2708,0.8617,-5.941,-6.5221,-65.08,23.95,-24.59
1999-01-15 09:30:39.3398,0.9772,-3.5869,-6.534,-155.56,38.89,-31.74
1999-01-15 09:30:39.4087,1.0837,-3.7179,-8.5878,-16.5,137.8,-0.34
1999-01-15 09:30:39.4777,3.7185,-3.2607,-10.1508,-72.23,23.01,-30.5
1999-01-15 09:30:39.5467,2.9855,-3.2236,-9.5231,-18.2,-4.79,-9.43
1999-01-15 09:30:39.6156,2.4876,-2.7545,-10.4704,-14.48,-52.23,-7.88
1999-01-15 09:30:39.6846,0.8324,-3.3679,-10.7014,-63.04,96.36,-39.03
1999-01-15 09:30:39.7535,3.2075,-1.4703,-12.4403,94.26,176.87,-38.83
1999-01-15 09:30:39.8225,5.4234,-1.7934,-4.6508,-32.1,193.48,-25.95
1999-01-15 09:30:39.8914,7.847,0.8593,-9.7248,6.37,112.1,15.56
1999-01-15 09:30:39.9604,12.2608,-1.3787,-8.3149,-43.16,150.61,59.87
1999-01-15 09:30:40.0293,11.1203,-3.1237,-0.1293,-97.62,243.9,107.42
1999-01-15 09:30:40.0983,7.0307,-3.153,-3.165,-67.47,68.35,154.55
1999-01-15 09:30:40.1672,5.1308,-6.2528,-3.2775,-87.25,88.98,121.82
1999-01-15 09:30:40.2362,6.5298,-5.8489,-3.4181,-83.34,37.21,98.39
1999-01-15 09:30:40.3052,5.9739,-6.6304,-2.8059,-44.14,24.28,54.25
1999-01-15 09:30:40.3741,5.3713,-7.2282,-3.527,-20.2,7.32,23.71
1999-01-15 09:30:40.4431,7.9714,-6.4622,-1.0831,-14.25,18.6,11.86
1999-01-15 09:30:40.5120,8.0091,-6.0559,-2.3559,-1.57,34.31,1.28
1999-01-15 09:30:40.5810,6.3013,-6.9547,-3.2033,21.89,40.36,-9.28
1999-01-15 09:30:40.6499,7.2455,-6.8117,-0.8641,-8.48,77.48,16.83
1999-01-15 09:30:40.7189,8.1132,-6.8566,-2.2398,-5.74,26.05,14.69
1999-01-15 09:30:40.7878,6.0978,-7.0259,-2.2476,10.95,-16.63,-0.27
1999-01-15 09:30:40.8568,7.1749,-6.406,-2.4583,17.82,-28.23,-1.12
1999-01-15 09:30:40.9257,7.057,-6.7692,-2.2045,13.52,-39.47,-2.14
1999-01-15 09:30:40.9947,7.4849,-6.5328,-2.0825,12.09,-30.48,-2.27
1999-01-15 09:30:41.0636,6.5406,-6.3611,-1.4374,5.07,-25.0,-0.58
1999-01-15 09:30:41.1326,7.1432,-6.6328,-2.4266,-3.67,-39.19,4.65
1999-01-15 09:30:41.2016,6.8147,-6.9314,-2.6396,19.45,-22.03,-5.04
1999-01-15 09:30:41.2705,6.6388,-6.0775,-1.0712,18.82,-13.82,-11.0
1999-01-15 09:30:41.3395,7.2815,-6.4826,-1.6995,3.54,-10.4,-16.02
1999-01-15 09:30:41.4084,8.1737,-6.789,-2.8179,-5.01,-4.03,-11.8
1999-01-15 09:30:41.4774,7.2444,-6.4586,-2.5833,-9.12,9.54,-3.66
1999-01-15 09:30:41.5463,7.1971,-6.4197,-3.7999,-7.81,1.89,4.32
1999-01-15 09:30:41.6153,6.4078,-6.0691,-2.5576,0.72,4.37,-2.7
1999-01-15 09:30:41.6842,7.3389,-6.3713,-2.8652,-0.87,-1.92,-5.06
1999-01-15 09:30:41.7532,7.2964,-6.5562,-2.8305,-5.1,-0.8,-0.4
1999-01-15 09:30:41.8221,7.1731,-6.5897,-3.0274,-2.05,1.39,0.53
1999-01-15 09:30:41.8911,7.2976,-6.1451,-2.7575,-6.35,-0.59,1.57
1999-01-15 09:30:41.9600,7.3323,-6.2079,-3.6036,-5.86,-2.39,3.33
1999-01-15 09:30:42.0290,6.2648,-6.0493,-3.0555,0.97,0.13,-1.43
1999-01-15 09:30:42.0980,7.3054,-6.1487,-2.9202,0.28,-3.17,-4.7
1999-01-15 09:30:42.1669,7.2892,-6.2845,-2.9065,-2.17,-0.64,-4.16
1999-01-15 09:30:42.2359,7.1384,-6.4521,-3.4151,-0.8,0.56,-1.58
1999-01-15 09:30:42.3048,7.1151,-6.2648,-3.2613,1.01,0.35,-0.03
1999-01-15 09:30:42.3738,7.0547,-6.1983,-3.1985,3.7,0.61,-0.79
1999-01-15 09:30:42.4427,7.0529,-6.0966,-3.314,5.56,-4.62,-2.14
1999-01-15 09:30:42.5117,7.1103,-5.8919,-3.2464,3.63,-6.5,-6.01
1999-01-15 09:30:42.5806,7.3407,-6.1989,-3.5462,0.8,-6.29,-4.38
1999-01-15 09:30:42.6496,7.3144,-6.233,-3.3942,1.63,-4.73,-2.19
1999-01-15 09:30:42.7185,7.3006,-6.2193,-3.4498,2.59,-0.17,2.03
1999-01-15 09:30:42.7875,7.0947,-6.1439,-3.3834,5.01,0.48,3.46
1999-01-15 09:30:42.8565,7.1127,-5.947,-3.1973,5.06,2.3,3.19
1999-01-15 09:30:42.9254,7.1654,-5.9895,-3.2236,4.0,2.87,1.46
1999-01-15 09:30:42.9944,7.0906,-5.9811,-3.074,1.16,2.98,-0.55
1999-01-15 09:30:43.0633,7.2354,-6.1373,-3.3158,-1.14,3.45,-0.89
1999-01-15 09:30:43.1323,7.2904,-6.2211,-3.3278,-0.12,2.98,-1.52
1999-01-15 09:30:43.2012,7.2844,-6.1935,-3.4702,-0.75,2.63,0.58
1999-01-15 09:30:43.2702,7.0247,-6.0475,-3.2422,-0.62,3.71,-0.55
1999-01-15 09:30:43.3391,7.2641,-6.0822,-3.2428,-1.77,2.51,0.11
1999-01-15 09:30:43.4081,7.2707,-6.0912,-3.3463,-1.78,1.86,1.42
1999-01-15 09:30:43.4770,7.1618,-6.0068,-3.2871,-1.11,1.74,1.57
1999-01-15 09:30:43.5460,7.1378,-5.9021,-3.2434,-1.36,3.02,-1.2
1999-01-15 09:30:43.6149,7.4915,-5.9703,-3.4103,-3.19,0.66,-1.07
1999-01-15 09:30:43.6839,6.8267,-5.8788,-3.4139,-2.43,3.96,-3.58
1999-01-15 09:30:43.7529,7.1672,-6.0164,-3.6246,1.08,2.71,-4.57
1999-01-15 09:30:43.8218,7.2222,-5.886,-2.9011,3.67,3.88,-6.06
1999-01-15 09:30:43.8908,7.9541,-6.1708,-3.4504,0.1,0.52,-1.83
1999-01-15 09:30:43.9597,6.9673,-5.9973,-3.5946,3.17,6.71,0.56
1999-01-15 09:30:44.0287,7.1289,-5.792,-3.4977,1.68,1.47,-0.9
1999-01-15 09:30:44.0976,7.4059,-5.9398,-3.381,0.93,3.12,-2.19
1999-01-15 09:30:44.1666,7.4275,-5.9775,-3.2296,-2.3,0.86,-0.51
1999-01-15 09:30:44.2355,7.5202,-5.8548,-3.3302,-2.11,2.0,0.28
1999-01-15 09:30:44.3045,7.7315,-5.8261,-3.7915,-1.02,-2.36,2.02
1999-01-15 09:30:44.3734,7.0122,-5.3522,-3.235,1.95,1.49,-1.82
1999-01-15 09:30:44.4424,7.2976,-5.6448,-3.2224,-0.66,1.22,-3.39
1999-01-15 09:30:44.5114,7.5567,-5.9763,-3.2182,-2.52,2.3,-3.84
1999-01-15 09:30:44.5803,7.4735,-6.0242,-3.4893,-2.32,3.71,0.08
1999-01-15 09:30:44.6493,7.1983,-5.9841,-4.1332,3.3,3.19,3.11
1999-01-15 09:30:44.7182,7.2844,-5.5102,-3.2769,7.84,1.25,0.52
1999-01-15 09:30:44.7872,7.6094,-5.4874,-3.0615,2.7,0.67,-0.38
1999-01-15 09:30:44.8561,7.6136,-5.734,-3.6288,-0.84,1.57,1.46
1999-01-15 09:30:44.9251,7.0822,-5.64,-3.0501,-1.57,3.47,0.34
1999-01-15 09:30:44.9940,7.668,-6.0068,-3.4014,-3.18,2.62,2.0
1999-01-15 09:30:45.0630,7.4646,-5.6933,-2.8448,-5.2,5.98,2.73
1999-01-15 09:30:45.1319,7.5687,-5.9494,-3.5653,-6.65,7.67,7.07
1999-01-15 09:30:45.2009,7.2019,-5.7005,-3.4253,-5.55,5.84,7.67
1999-01-15 09:30:45.2698,7.5112,-5.8118,-3.746,-3.25,2.61,7.78
1999-01-15 09:30:45.3388,7.2102,-5.7633,-3.7814,2.43,-0.13,7.06
1999-01-15 09:30:45.4078,7.3269,-5.7585,-3.4666,6.15,-3.25,3.61
1999-01-15 09:30:45.4767,7.1863,-5.9841,-3.5994,5.43,-5.09,4.16
1999-01-15 09:30:45.5457,7.1899,-5.9099,-3.469,4.08,-8.12,1.52
1999-01-15 09:30:45.6146,7.1666,-5.9261,-3.6,6.15,-5.08,-0.76
1999-01-15 09:30:45.6836,6.9134,-5.9554,-3.7419,7.45,-6.33,-0.75
1999-01-15 09:30:45.7525,7.1845,-5.8872,-3.3864,6.4,-9.45,-2.13
1999-01-15 09:30:45.8215,7.0582,-6.0481,-3.5743,7.35,-5.15,-2.8
1999-01-15 09:30:45.8904,7.0744,-6.0691,-3.5653,5.51,-3.62,-3.37
1999-01-15 09:30:45.9594,6.935,-6.1558,-3.5348,5.01,0.11,-4.21
1999-01-15 09:30:46.0283,7.1618,-6.1271,-3.4307,1.64,1.23,-3.05
1999-01-15 09:30:46.0973,7.1839,-6.2181,-3.5929,-0.52,2.84,-0.62
1999-01-15 09:30:46.1662,7.1576,-6.0547,-3.5587,-1.57,3.6,1.27
1999-01-15 09:30:46.2352,7.1618,-6.0505,-3.6832,0.25,4.1,2.36
1999-01-15 09:30:46.3042,7.1444,-5.9117,-3.5731,0.45,3.11,2.46
1999-01-15 09:30:46.3731,7.2372,-5.871,-3.4911,-0.26,3.59,2.75
1999-01-15 09:30:46.4421,7.2306,-6.0571,-3.8155,0.68,1.46,3.68
1999-01-15 09:30:46.5110,7.0349,-5.9201,-3.7742,3.28,0.45,2.55
1999-01-15 09:30:46.5800,6.9475,-5.6999,-3.1889,1.96,2.14,-1.78
1999-01-15 09:30:46.6489,7.2288,-6.029,-3.3637,-3.88,2.62,-3.1
1999-01-15 09:30:46.7179,7.2587,-6.2893,-3.8621,-5.14,1.44,-1.31
1999-01-15 09:30:46.7868,7.0648,-6.1187,-3.8819,-2.38,1.03,0.36
1999-01-15 09:30:46.8558,7.1941,-5.7645,-3.5073,-0.09,1.04,-0.61
1999-01-15 09:30:46.9247,7.1516,-5.7681,-3.5569,-1.78,1.58,-0.29
1999-01-15 09:30:46.9937,7.1175,-5.9458,-3.694,-3.31,0.83,-0.66
1999-01-15 09:30:47.0627,7.1031,-6.0918,-3.7646,-0.76,1.65,-1.21
1999-01-15 09:30:47.1316,7.2503,-6.0344,-3.8388,1.73,1.27,0.18
1999-01-15 09:30:47.2006,7.1983,-5.792,-3.8992,3.47,0.45,0.46
1999-01-15 09:30:47.2695,7.0433,-5.7005,-3.8825,3.96,0.07,-0.91
1999-01-15 09:30:47.3385,6.9912,-5.862,-3.907,2.7,-0.32,-1.96
1999-01-15 09:30:47.4074,7.0714,-5.9015,-3.606,2.15,-0.66,-2.66
1999-01-15 09:30:47.4764,7.1839,-6.0565,-3.7508,3.09,1.82,-1.54
1999-01-15 09:30:47.5453,7.2539,-5.9374,-3.5707,2.89,1.54,-0.36
1999-01-15 09:30:47.6143,7.2312,-5.8513,-3.5653,1.51,4.1,0.18
1999-01-15 09:30:47.6832,7.1492,-5.8758,-3.6988,-0.66,5.4,0.92
1999-01-15 09:30:47.7522,7.2336,-5.9111,-3.8191,-0.58,4.89,1.49
1999-01-15 09:30:47.8211,7.1797,-5.889,-3.8579,0.43,3.05,1.64
1999-01-15 09:30:47.8901,7.2019,-5.7782,-3.7018,1.13,1.84,0.79
1999-01-15 09:30:47.9591,7.1462,-5.7417,-3.6814,1.29,2.0,-0.58
1999-01-15 09:30:48.0280,7.2599,-5.8794,-3.7873,1.08,0.82,-0.45
1999-01-15 09:30:48.0970,7.1666,-5.8608,-3.6724,1.77,-0.99,-0.48
1999-01-15 09:30:48.1659,7.3293,-5.9703,-3.7927,3.48,-0.79,-0.12
1999-01-15 09:30:48.2349,7.1713,-5.7531,-3.5737,4.59,-0.29,-0.11
1999-01-15 09:30:48.3038,7.1809,-5.8225,-3.5773,2.95,0.01,-0.5
1999-01-15 09:30:48.3728,7.1977,-5.9213,-3.7808,3.15,0.96,-0.52
1999-01-15 09:30:48.4417,7.136,-5.8034,-3.6724,3.09,0.48,-0.29
1999-01-15 09:30:48.5107,7.3688,-5.8626,-3.5887,1.19,-0.63,-0.5
1999-01-15 09:30:48.5796,7.0726,-5.8614,-3.6515,0.76,1.72,0.86
1999-01-15 09:30:48.6486,7.2629,-5.9308,-3.7389,0.76,0.81,0.36
1999-01-15 09:30:48.7175,7.3688,-5.9278,-3.8023,1.69,0.38,1.38
1999-01-15 09:30:48.7865,7.093,-5.7022,-3.7018,1.71,0.41,0.98
1999-01-15 09:30:48.8555,7.1636,-5.7675,-3.834,2.07,0.88,-0.14
1999-01-15 09:30:48.9244,7.0989,-5.8124,-3.7395,1.93,-0.27,-1.8
1999-01-15 09:30:48.9934,7.3365,-5.9428,-3.7999,2.15,-0.93,-1.28
1999-01-15 09:30:49.0623,7.1091,-5.7788,-3.7173,2.98,-0.04,-0.73
1999-01-15 09:30:49.1313,7.1432,-5.7962,-3.7682,2.85,-0.35,-0.98
1999-01-15 09:30:49.2002,7.1007,-5.8626,-3.6539,2.52,0.79,-1.5
1999-01-15 09:30:49.2692,7.2815,-6.0266,-3.8424,2.61,1.25,-0.47
1999-01-15 09:30:49.3381,7.1223,-5.8435,-3.67,1.65,1.4,0.64
1999-01-15 09:30:49.4071,7.2043,-5.865,-3.7628,2.23,3.35,0.63
1999-01-15 09:30:49.4760,7.2336,-5.8997,-3.7209,-0.08,0.68,1.3
1999-01-15 09:30:49.5450,7.2384,-5.8824,-3.8705,1.83,3.28,3.01
1999-01-15 09:30:49.6140,7.1151,-5.7011,-3.7323,2.16,1.61,2.66
1999-01-15 09:30:49.6829,7.1779,-5.9033,-3.7556,3.11,1.28,1.96
1999-01-15 09:30:49.7519,7.154,-5.9165,-3.7377,3.56,1.14,1.58
1999-01-15 09:30:49.8208,6.8626,-5.8794,-3.7616,5.08,1.81,0.15
1999-01-15 09:30:49.8898,7.3263,-5.9015,-3.5522,4.39,0.46,-0.32
1999-01-15 09:30:49.9587,7.1588,-6.0158,-3.5863,3.58,1.67,-0.44
1999-01-15 09:30:50.0277,6.9852,-6.1379,-3.9357,3.39,2.26,0.35
1999-01-15 09:30:50.0966,6.984,-5.9829,-3.6312,3.26,0.26,-0.17
1999-01-15 09:30:50.1656,7.2916,-6.1175,-3.6976,2.86,0.47,0.76
1999-01-15 09:30:50.2345,7.2324,-6.0224,-3.5982,1.13,-0.88,2.76
1999-01-15 09:30:50.3035,6.8356,-6.0386,-3.5623,2.02,1.07,0.73
1999-01-15 09:30:50.3724,7.2527,-6.0954,-3.6922,0.45,1.39,1.57
1999-01-15 09:30:50.4414,7.1025,-5.9829,-3.5964,-0.49,1.23,1.6
1999-01-15 09:30:50.5104,6.8901,-6.0924,-3.7113,-0.72,1.51,0.9
1999-01-15 09:30:50.5793,7.1582,-6.1235,-3.6736,-1.35,0.94,1.12
1999-01-15 09:30:50.6483,7.0499,-6.0481,-3.6724,-1.41,1.61,1.8
1999-01-15 09:30:50.7172,6.9709,-6.0248,-3.8627,-0.32,1.69,1.98
1999-01-15 09:30:50.7862,7.0343,-5.9021,-3.6419,0.12,0.67,0.88
1999-01-15 09:30:50.8551,7.1366,-5.9841,-3.6371,-0.28,0.71,0.36
1999-01-15 09:30:50.9241,7.0193,-6.0122,-3.6479,0.07,2.18,0.21
1999-01-15 09:30:50.9930,7.0499,-6.0254,-3.7849,-0.53,2.39,0.54
1999-01-15 09:30:51.0620,6.9565,-6.0182,-3.8322,-0.13,1.85,0.27
1999-01-15 09:30:51.1309,7.0104,-6.038,-3.7945,-0.63,1.26,-0.08
1999-01-15 09:30:51.1999,7.0146,-5.9931,-3.7843,-0.84,1.37,0.77
1999-01-15 09:30:51.2689,7.1115,-5.9129,-3.7754,-0.91,2.17,0.39
1999-01-15 09:30:51.3378,7.0307,-5.9596,-3.8083,-1.47,2.87,-0.28
1999-01-15 09:30:51.4068,7.0128,-6.0158,-3.8998,-1.78,2.16,-0.26
1999-01-15 09:30:51.4757,7.0523,-5.9356,-3.825,-1.68,2.65,-0.11
1999-01-15 09:30:51.5447,7.1348,-6.008,-3.9268,-1.31,2.0,0.57
1999-01-15 09:30:51.6136,7.0176,-5.8824,-3.8226,-0.35,3.08,0.58
1999-01-15 09:30:51.6826,7.1983,-5.9075,-3.8861,0.15,2.64,0.22
1999-01-15 09:30:51.7515,7.0259,-5.813,-3.8131,-0.28,2.46,-0.2
1999-01-15 09:30:51.8205,7.0876,-5.8991,-3.837,-1.04,2.51,-1.15
1999-01-15 09:30:51.8894,7.1594,-5.9033,-3.8657,-0.25,2.76,-1.13
1999-01-15 09:30:51.9584,6.999,-5.9033,-3.8328,0.14,3.05,-1.0
1999-01-15 09:30:52.0273,7.1737,-5.8728,-3.7837,-0.38,2.69,-0.69
1999-01-15 09:30:52.0963,7.2545,-5.8907,-3.9728,-0.37,2.41,1.15
1999-01-15 09:30:52.1653,6.9404,-5.6969,-3.7861,-0.88,2.7,0.34
1999-01-15 09:30:52.2342,7.364,-5.9338,-4.0405,-0.13,2.28,0.16
1999-01-15 09:30:52.3032,6.9428,-5.7747,-3.8179,-0.46,2.28,0.29
1999-01-15 09:30:52.3721,7.2988,-5.88,-3.9848,-0.29,1.48,0.92
1999-01-15 09:30:52.4411,7.136,-5.8165,-3.8669,0.34,1.65,0.84
1999-01-15 09:30:52.5100,7.2019,-5.78,-3.8568,0.62,2.09,0.56
1999-01-15 09:30:52.5790,7.1791,-5.7842,-3.9627,0.11,1.68,0.8
1999-01-15 09:30:52.6479,7.1253,-5.7076,-3.8041,-0.02,1.53,0.77
1999-01-15 09:30:52.7169,7.1953,-5.8285,-3.8945,0.18,1.71,0.21
1999-01-15 09:30:52.7858,7.0947,-5.795,-3.9178,-0.17,2.34,0.32
1999-01-15 09:30:52.8548,7.2767,-5.8674,-3.9722,0.42,2.47,0.23
1999-01-15 09:30:52.9237,7.0672,-5.8028,-3.9513,-0.06,2.23,0.6
1999-01-15 09:30:52.9927,7.2084,-5.7765,-3.9639,0.82,2.94,0.33
1999-01-15 09:30:53.0617,7.1025,-5.707,-3.8442,-0.13,2.67,0.56
1999-01-15 09:30:53.1306,7.3078,-5.8746,-3.9938,0.63,2.71,0.63
1999-01-15 09:30:53.1996,7.1229,-5.7441,-3.8693,0.13,1.84,0.77
1999-01-15 09:30:53.2685,7.2653,-5.7633,-3.8831,0.32,2.15,0.65
1999-01-15 09:30:53.3375,7.0672,-5.6963,-3.8502,-0.19,2.43,0.8
1999-01-15 09:30:53.4064,7.1773,-5.7669,-3.9184,0.15,2.73,0.43
1999-01-15 09:30:53.4754,7.2372,-5.7669,-3.8747,0.38,2.43,0.49
1999-01-15 09:30:53.5443,7.1516,-5.7058,-3.8436,0.55,2.81,0.57
1999-01-15 09:30:53.6133,7.1115,-5.7417,-3.9034,-0.06,2.95,0.16
1999-01-15 09:30:53.6822,7.2521,-5.7693,-3.995,0.41,2.9,0.98
1999-01-15 09:30:53.7512,7.145,-5.7872,-3.9328,0.93,1.66,0.68
1999-01-15 09:30:53.8202,7.2162,-5.8369,-3.9842,0.99,2.04,0.67
1999-01-15 09:30:53.8891,7.057,-5.7262,-3.8304,0.1,2.28,0.8
1999-01-15 09:30:53.9581,7.2587,-5.731,-3.8939,0.69,2.95,1.39
1999-01-15 09:30:54.0270,7.1324,-5.7609,-3.8945,0.56,2.41,1.03
1999-01-15 09:30:54.0960,7.1785,-5.7974,-3.9292,0.94,2.64,1.28
1999-01-15 09:30:54.1649,7.1402,-5.8231,-3.9555,0.83,2.26,1.17
1999-01-15 09:30:54.2349,7.1462,-5.8159,-3.9238,0.5,1.86,1.37
1999-01-15 09:30:54.3041,7.1779,-5.8542,-3.9501,0.85,1.62,1.36
1999-01-15 09:30:54.3733,7.1091,-5.6933,-3.7897,0.53,2.51,0.85
1999-01-15 09:30:54.4424,7.2336,-5.804,-3.8998,0.31,2.8,0.74
1999-01-15 09:30:54.5116,7.1654,-5.8949,-3.9746,0.6,1.93,-0.04
1999-01-15 09:30:54.5808,7.0277,-5.8596,-3.9304,0.65,1.95,1.16
1999-01-15 09:30:54.6500,7.2084,-5.8812,-3.9322,0.25,1.1,0.76
1999-01-15 09:30:54.7192,7.0804,-5.801,-3.8747,1.47,1.95,1.39
1999-01-15 09:30:54.7884,7.148,-5.8171,-3.8562,0.48,1.4,0.45
1999-01-15 09:30:54.8576,7.0965,-5.8022,-3.8197,0.48,3.32,0.76
1999-01-15 09:30:54.9268,7.0912,-5.8393,-3.8591,0.84,3.23,0.05
1999-01-15 09:30:54.9959,7.2108,-5.8722,-3.9118,0.6,3.59,0.66
1999-01-15 09:30:55.0651,6.9649,-5.8501,-3.9758,0.95,2.62,0.44
1999-01-15 09:30:55.1343,7.2031,-5.7872,-3.8173,0.98,1.81,0.25
1999-01-15 09:30:55.2035,7.1319,-5.8363,-3.8514,0.77,2.05,0.35
1999-01-15 09:30:55.2727,7.1552,-5.8016,-3.7993,1.06,2.09,0.14
1999-01-15 09:30:55.3419,7.2282,-5.8836,-3.9052,2.77,3.52,0.09
1999-01-15 09:30:55.4111,7.0756,-5.7435,-3.7514,1.69,2.84,0.0
1999-01-15 09:30:55.4803,7.2916,-5.8728,-3.9483,0.98,1.27,-0.79
1999-01-15 09:30:55.5494,7.0696,-5.7106,-3.67,0.02,2.18,-0.83
1999-01-15 09:30:55.6186,7.3084,-5.8602,-3.8556,-0.03,2.26,-0.35
1999-01-15 09:30:55.6878,7.2545,-5.8189,-3.8214,-0.12,1.3,0.93
1999-01-15 09:30:55.7570,7.1139,-5.7489,-3.7634,0.48,1.69,0.48
1999-01-15 09:30:55.8262,7.2168,-5.7058,-3.8149,-0.39,2.22,0.93
1999-01-15 09:30:55.8954,7.1534,-5.7405,-3.8083,-0.21,2.63,-0.02
1999-01-15 09:30:55.9646,7.1618,-5.8142,-3.8639,0.57,2.85,-0.26
1999-01-15 09:30:56.0338,7.1725,-5.8608,-3.8376,0.46,2.34,0.08
1999-01-15 09:30:56.1029,7.2168,-5.8159,-3.8262,1.03,1.86,0.62
1999-01-15 09:30:56.1721,7.2049,-5.6915,-3.7676,0.84,1.99,0.7
1999-01-15 09:30:56.2413,7.1684,-5.6753,-3.8029,0.87,2.17,0.51
1999-01-15 09:30:56.3105,7.1546,-5.7609,-3.8214,0.48,1.64,0.67
1999-01-15 09:30:56.3797,7.2186,-5.862,-3.9142,0.85,2.17,0.94
1999-01-15 09:30:56.4489,7.2575,-5.8471,-3.8591,0.8,1.6,0.63
1999-01-15 09:30:56.5181,7.1324,-5.8159,-3.8262,0.72,1.78,0.94
1999-01-15 09:30:56.5873,7.2737,-5.7382,-3.7969,1.04,2.35,0.82
1999-01-15 09:30:56.6564,7.1684,-5.7585,-3.913,1.02,1.51,0.65
1999-01-15 09:30:56.7256,7.2252,-5.8082,-3.8364,1.2,1.16,0.41
1999-01-15 09:30:56.7948,7.1827,-5.7782,-3.7903,1.34,1.89,0.47
1999-01-15 09:30:56.8640,7.2114,-5.7142,-3.7089,1.12,2.0,0.54
1999-01-15 09:30:56.9332,7.2252,-5.7729,-3.7754,1.2,1.79,0.41
1999-01-15 09:30:57.0024,7.154,-5.8124,-3.7915,1.7,2.12,0.2
1999-01-15 09:30:57.0716,7.212,-5.8094,-3.8107,1.45,1.8,0.03
1999-01-15 09:30:57.1408,7.2485,-5.8052,-3.7676,1.03,1.44,0.66
1999-01-15 09:30:57.2099,7.1857,-5.8046,-3.7526,0.95,1.91,0.39
1999-01-15 09:30:57.2791,7.1935,-5.8931,-3.8639,0.57,1.35,0.81
1999-01-15 09:30:57.3483,7.0983,-5.795,-3.7586,0.46,1.83,1.46
1999-01-15 09:30:57.4175,7.312,-5.8776,-3.9148,0.62,2.02,0.68
1999-01-15 09:30:57.4867,7.1295,-5.8459,-3.8035,0.15,1.59,1.01
1999-01-15 09:30:57.5559,7.2204,-5.8375,-3.7484,0.2,2.24,1.19
1999-01-15 09:30:57.6251,7.1426,-5.8165,-3.8568,0.49,2.01,1.78
1999-01-15 09:30:57.6943,7.1983,-5.795,-3.7778,0.58,2.14,0.78
1999-01-15 09:30:57.7634,7.1247,-5.801,-3.7466,0.22,2.58,0.6
1999-01-15 09:30:57.8326,7.2623,-5.8734,-3.7969,0.32,2.86,0.59
1999-01-15 09:30:57.9018,7.1456,-5.8423,-3.8615,0.8,2.57,1.5
1999-01-15 09:30:57.9710,7.1528,-5.7908,-3.7724,0.97,1.4,1.53
1999-01-15 09:30:58.0402,7.1223,-5.7741,-3.7269,1.76,1.19,0.95
1999-01-15 09:30:58.1094,7.1899,-5.8459,-3.8131,2.11,1.44,0.5
1999-01-15 09:30:58.1786,7.1666,-5.8674,-3.8041,1.77,0.07,1.34
1999-01-15 09:30:58.2478,7.133,-5.8279,-3.7257,2.42,1.07,-0.11
1999-01-15 09:30:58.3170,7.0373,-5.9626,-3.7347,1.58,1.15,-0.67
1999-01-15 09:30:58.3861,7.1911,-6.0655,-3.898,1.57,2.0,0.61
1999-01-15 09:30:58.4553,6.695,-6.1672,-3.8956,3.55,1.35,0.63
1999-01-15 09:30:58.5245,7.4604,-6.014,-3.7676,5.17,2.29,1.64
1999-01-15 09:30:58.5937,6.9128,-5.6981,-3.536,2.76,2.74,2.98
1999-01-15 09:30:58.6629,7.1821,-5.8315,-3.7496,1.86,3.19,1.2
1999-01-15 09:30:58.7321,6.9487,-5.9416,-3.7233,0.77,3.13,0.26
1999-01-15 09:30:58.8013,7.1366,-6.0296,-3.767,0.93,3.09,-0.38
1999-01-15 09:30:58.8705,7.1366,-6.0134,-3.7233,0.05,1.57,0.89
1999-01-15 09:30:58.9396,7.0774,-5.9027,-3.67,0.6,3.23,0.8
1999-01-15 09:30:59.0088,6.9583,-6.0278,-3.7897,-0.38,1.9,0.57
1999-01-15 09:30:59.0780,7.2144,-5.9973,-3.6144,0.36,2.54,0.12
1999-01-15 09:30:59.1472,7.0786,-5.947,-3.7209,0.39,3.64,0.76
1999-01-15 09:30:59.2164,7.0499,-5.9057,-3.7137,-0.56,3.05,1.04
1999-01-15 09:30:59.2856,7.0936,-6.026,-3.7879,-0.11,2.3,0.11
1999-01-15 09:30:59.3548,7.1366,-6.0374,-3.7664,-0.14,1.85,0.74
1999-01-15 09:30:59.4240,7.1181,-5.9261,-3.5893,-0.54,2.28,-0.05
1999-01-15 09:30:59.4931,7.0457,-6.0015,-3.7939,-0.91,2.88,0.48
1999-01-15 09:30:59.5623,7.166,-5.9267,-3.7437,-1.85,1.63,0.46
1999-01-15 09:30:59.6315,6.9242,-5.9931,-3.8597,-0.68,2.35,0.38
1999-01-15 09:30:59.7007,7.2324,-5.8848,-3.6036,-0.78,1.63,-0.49
1999-01-15 09:30:59.7699,7.1869,-5.932,-3.7215,-0.7,2.09,0.97
1999-01-15 09:30:59.8391,7.0182,-5.9015,-3.8089,1.03,2.22,0.38
1999-01-15 09:30:59.9083,7.3233,-5.7531,-3.5803,-0.44,1.64,0.68
1999-01-15 09:30:59.9775,7.0307,-5.9111,-3.7544,0.03,2.82,0.01
1999-01-15 09:31:00.0466,7.0588,-5.9296,-3.7048,0.42,3.52,0.11
1999-01-15 09:31:00.1158,7.2575,-5.9117,-3.8208,-0.25,2.98,1.09
1999-01-15 09:31:00.1850,7.2491,-5.8219,-3.8274,1.01,2.52,0.71
1999-01-15 09:31:00.2542,7.0648,-5.801,-3.7089,0.8,2.14,-0.02
1999-01-15 09:31:00.3234,7.315,-5.8794,-3.7688,-0.46,2.32,0.51
1999-01-15 09:31:00.3926,7.0205,-5.8447,-3.7383,-0.31,2.7,0.42
1999-01-15 09:31:00.4618,7.2731,-5.9554,-3.837,0.07,2.31,0.66
1999-01-15 09:31:00.5310,7.1372,-5.8704,-3.7245,-0.25,2.17,1.59
1999-01-15 09:31:00.6001,7.1761,-5.9033,-3.8454,0.11,1.94,1.93
1999-01-15 09:31:00.6693,7.0906,-5.8369,-3.7341,0.68,1.58,1.32
1999-01-15 09:31:00.7385,7.236,-5.8979,-3.8059,0.52,1.48,1.3
1999-01-15 09:31:00.8077,7.1061,-5.7872,-3.8005,0.22,1.79,1.57
1999-01-15 09:31:00.8769,7.1414,-5.9422,-3.8496,0.52,0.84,0.6
1999-01-15 09:31:00.9461,7.0271,-5.8919,-3.6689,0.24,1.09,1.78
1999-01-15 09:31:01.0153,7.1067,-5.9392,-3.8693,0.22,2.05,1.24
1999-01-15 09:31:01.0845,7.075,-5.9057,-3.8448,0.32,2.6,2.06
1999-01-15 09:31:01.1536,7.1193,-5.9135,-3.8454,0.24,2.03,1.49
1999-01-15 09:31:01.2228,7.0971,-5.9027,-3.7676,-0.09,3.19,1.71
1999-01-15 09:31:01.2920,7.0397,-5.9261,-3.8101,-0.57,2.87,0.74
1999-01-15 09:31:01.3612,7.0852,-5.9703,-3.8484,-0.79,3.55,1.37
1999-01-15 09:31:01.4304,7.1492,-5.9703,-3.9058,-0.25,3.01,1.01
1999-01-15 09:31:01.4996,6.9206,-5.804,-3.8167,-0.2,2.45,0.71
1999-01-15 09:31:01.5688,7.1127,-5.874,-3.7532,-0.51,2.39,-0.11
1999-01-15 09:31:01.6380,7.1133,-5.9087,-3.831,0.02,2.51,-0.06
1999-01-15 09:31:01.7071,6.8961,-6.1409,-4.05,1.5,0.9,0.04
1999-01-15 09:31:01.7763,7.1839,-5.7705,-3.4498,2.5,1.3,-0.23
1999-01-15 09:31:01.8455,7.2461,-5.7178,-3.6491,0.18,2.12,-0.06
1999-01-15 09:31:01.9147,6.9404,-5.5413,-3.6347,-1.3,4.23,-2.47
1999-01-15 09:31:01.9839,7.2946,-5.7998,-3.8113,-2.66,3.91,-5.35
1999-01-15 09:31:02.0531,7.2761,-5.8255,-3.9525,-2.07,3.32,-5.72
1999-01-15 09:31:02.1223,7.2067,-5.7507,-3.8364,-2.56,2.95,-6.42
1999-01-15 09:31:02.1915,7.3084,-5.7166,-3.9094,-6.68,1.72,-5.6
1999-01-15 09:31:02.2607,7.1791,-5.5658,-3.3032,-8.6,3.72,-5.61
1999-01-15 09:31:02.3298,7.4999,-5.8118,-3.5312,-12.56,5.92,-3.49
1999-01-15 09:31:02.3990,7.522,-5.795,-3.5617,-14.6,9.12,1.18
1999-01-15 09:31:02.4682,7.6465,-5.7094,-3.7239,-13.7,11.87,5.22
1999-01-15 09:31:02.5374,7.145,-5.5084,-3.767,-12.03,12.6,9.39
1999-01-15 09:31:02.6066,7.6058,-5.4372,-3.8232,-8.57,12.65,10.13
1999-01-15 09:31:02.6758,7.5531,-5.2941,-3.9028,-5.3,11.19,9.52
1999-01-15 09:31:02.7450,7.0606,-5.254,-3.9124,-3.47,8.11,8.16
1999-01-15 09:31:02.8142,7.7787,-5.3665,-3.8663,-0.38,3.01,1.96
1999-01-15 09:31:02.8833,6.9888,-5.0051,-3.3541,3.51,6.76,-1.08
1999-01-15 09:31:02.9525,7.5232,-5.2044,-3.3673,0.65,3.77,-7.29
1999-01-15 09:31:03.0217,7.8924,-5.6436,-3.9746,-0.74,6.5,-4.12
1999-01-15 09:31:03.0909,7.4706,-5.6179,-4.2571,0.2,5.61,-1.55
1999-01-15 09:31:03.1601,7.811,-5.4378,-3.8472,0.03,8.71,0.21
1999-01-15 09:31:03.2293,7.1187,-5.4419,-3.7131,-5.72,5.88,2.14
1999-01-15 09:31:03.2985,7.586,-5.4683,-4.3427,-4.8,3.53,4.46
1999-01-15 09:31:03.3677,7.0726,-5.4126,-4.3097,3.69,1.37,0.5
1999-01-15 09:31:03.4368,7.1289,-5.129,-3.0992,4.4,0.32,-6.5
1999-01-15 09:31:03.5060,7.315,-5.2834,-3.1991,1.59,8.43,-6.46
1999-01-15 09:31:03.5752,8.3879,-6.2043,-4.5928,-8.18,-2.37,-1.69
1999-01-15 09:31:03.6444,5.8243,-5.6945,-3.4014,7.65,13.35,-7.79
1999-01-15 09:31:03.7136,8.6883,-5.9045,-3.6168,1.86,2.32,-9.0
1999-01-15 09:31:03.7828,8.5716,-5.2516,-4.1931,4.03,5.73,0.36
1999-01-15 09:31:03.8520,6.9104,-3.9681,-3.1351,-0.33,10.84,0.74
1999-01-15 09:31:03.9212,7.7333,-4.518,-3.7646,-7.7,4.6,-4.64
1999-01-15 09:31:03.9903,8.0797,-4.6664,-2.7545,-4.44,6.22,-13.17
1999-01-15 09:31:04.0595,8.8265,-5.0254,-2.9418,-3.77,9.95,-9.74
1999-01-15 09:31:04.1287,8.9738,-4.8621,-2.5744,-7.6,9.92,-2.09
1999-01-15 09:31:04.1979,8.8924,-4.5826,-2.9932,-13.17,9.21,9.78
1999-01-15 09:31:04.2671,9.0617,-4.4875,-3.6347,-8.51,7.67,12.16
1999-01-15 09:31:04.3363,8.0169,-3.7024,-2.5498,-10.18,1.42,8.15
1999-01-15 09:31:04.4055,8.3359,-4.1649,-3.4875,-6.38,4.34,5.26
1999-01-15 09:31:04.4747,8.0289,-4.2577,-3.2727,-3.97,-0.76,0.78
1999-01-15 09:31:04.5438,7.9343,-4.2433,-2.7437,-4.13,-2.71,-0.38
1999-01-15 09:31:04.6130,8.3921,-4.8657,-3.6066,-4.27,-9.41,1.3
1999-01-15 09:31:04.6822,8.9654,-4.8214,-4.4564,8.42,-12.99,6.11
1999-01-15 09:31:04.7514,8.0959,-3.8412,-3.7,20.05,-8.5,6.13
1999-01-15 09:31:04.8206,8.1258,-3.6766,-3.5198,15.6,-0.29,8.43
1999-01-15 09:31:04.8898,7.0654,-4.3301,-3.6407,4.41,10.2,7.36
1999-01-15 09:31:04.9590,8.3179,-5.1691,-3.7508,-12.36,13.47,3.46
1999-01-15 09:31:05.0282,8.4154,-5.0895,-4.5856,-22.98,19.64,17.7
1999-01-15 09:31:05.0973,6.5885,-4.5599,-4.7586,-20.5,19.22,22.07
1999-01-15 09:31:05.1665,7.9074,-3.9902,-4.442,-17.51,14.45,15.49
1999-01-15 09:31:05.2357,7.9098,-3.8729,-4.9016,-17.4,14.14,11.49
1999-01-15 09:31:05.3049,6.4874,-2.5385,-3.3834,-21.96,22.1,4.9
1999-01-15 09:31:05.3741,7.4466,-4.2517,-5.6645,-36.0,4.41,-0.03
1999-01-15 09:31:05.4433,7.6112,-4.4462,-3.779,-27.06,1.02,-13.08
1999-01-15 09:31:05.5125,9.0659,-6.0086,-4.2846,-22.96,-3.77,-26.39
1999-01-15 09:31:05.5817,8.4519,-6.4138,-2.2734,-17.16,9.42,-32.17
1999-01-15 09:31:05.6508,9.7104,-7.4855,-3.9854,-19.66,10.39,-8.5
1999-01-15 09:31:05.7200,6.6352,-5.932,-2.6952,-18.62,15.36,17.06
1999-01-15 09:31:05.7892,7.9822,-6.2145,-4.8226,-4.78,8.5,28.27
1999-01-15 09:31:05.8584,6.5699,-4.9435,-3.3355,12.99,5.07,22.96
1999-01-15 09:31:05.9276,8.5435,-5.4545,-4.1218,22.86,0.94,11.39
1999-01-15 09:31:05.9968,6.8518,-4.5772,-2.9424,19.01,4.86,9.35
1999-01-15 09:31:06.0660,6.9691,-4.5276,-3.1207,2.69,0.01,5.9
1999-01-15 09:31:06.1352,7.1977,-5.4431,-3.4588,-9.28,-8.27,-5.82
1999-01-15 09:31:06.2044,8.592,-5.5383,-3.5516,-5.37,3.23,-7.34
1999-01-15 09:31:06.2735,7.5878,-5.2642,-3.8562,-17.9,-7.73,2.75
1999-01-15 09:31:06.3427,7.2767,-4.8752,-4.9088,-11.76,-9.1,6.57
1999-01-15 09:31:06.4119,8.2551,-4.4061,-5.2917,-1.26,-20.7,3.67
1999-01-15 09:31:06.4811,7.4622,-4.0004,-4.8663,9.28,-15.5,-5.75
1999-01-15 09:31:06.5503,7.4035,-4.5114,-4.6335,7.95,-9.43,-11.29
1999-01-15 09:31:06.6195,6.7166,-4.9973,-4.4462,-3.83,-7.67,-8.18
1999-01-15 09:31:06.6887,7.0624,-5.804,-5.5096,-8.48,-4.36,-1.86
1999-01-15 09:31:06.7579,7.2222,-5.4234,-5.3833,-4.64,0.13,6.26
1999-01-15 09:31:06.8270,7.1881,-5.0033,-5.4018,0.61,1.16,12.46
1999-01-15 09:31:06.8962,7.163,-4.6706,-5.4336,6.51,-3.17,14.4
1999-01-15 09:31:06.9654,6.8871,-4.4276,-5.506,16.4,-2.27,11.17
1999-01-15 09:31:07.0346,6.932,-4.0554,-4.8483,18.06,-7.17,3.36
1999-01-15 09:31:07.1038,6.9386,-4.5401,-4.5641,15.27,-7.52,-3.96
1999-01-15 09:31:07.1730,7.1157,-5.3635,-5.0769,15.13,-10.6,-7.44
1999-01-15 09:31:07.2422,7.1833,-5.3079,-4.457,15.32,-12.92,-8.37
1999-01-15 09:31:07.3114,7.1516,-5.5419,-4.7873,20.24,-6.14,-9.49
1999-01-15 09:31:07.3805,7.1989,-5.3001,-4.0417,17.26,-2.85,-8.1
1999-01-15 09:31:07.4497,7.2874,-5.4731,-4.2882,7.62,-0.36,-1.86
1999-01-15 09:31:07.5189,6.8937,-5.6711,-4.7215,5.08,3.14,0.66
1999-01-15 09:31:07.5881,7.2533,-5.64,-4.7274,3.75,1.78,1.86
1999-01-15 09:31:07.6573,7.3491,-5.3354,-4.6562,3.71,4.3,4.45
1999-01-15 09:31:07.7265,6.8907,-5.1798,-4.734,0.34,2.28,4.8
1999-01-15 09:31:07.7957,6.9954,-5.2205,-4.8944,1.33,0.62,3.31
1999-01-15 09:31:07.8649,6.9571,-5.1212,-4.6951,4.03,-1.03,-0.12
1999-01-15 09:31:07.9340,6.9326,-5.3306,-4.6838,4.53,-2.21,-1.74
1999-01-15 09:31:08.0032,7.0415,-5.5736,-4.7137,5.75,-4.04,-3.14
1999-01-15 09:31:08.0724,6.8961,-5.6095,-4.6562,8.51,-3.52,-2.7
1999-01-15 09:31:08.1416,6.9481,-5.5102,-4.5898,9.57,-3.41,-1.43
1999-01-15 09:31:08.2108,7.0864,-5.3588,-4.5162,10.37,-3.26,0.07
1999-01-15 09:31:08.2800,7.0762,-5.3725,-4.5503,8.32,-3.61,-0.32
1999-01-15 09:31:08.3492,6.7525,-5.5431,-4.6072,7.23,-1.06,-0.62
1999-01-15 09:31:08.4184,6.7297,-5.704,-4.6215,7.13,-1.03,-2.21
1999-01-15 09:31:08.4875,7.0594,-5.6909,-4.6209,5.69,-0.95,-0.57
1999-01-15 09:31:08.5567,6.8859,-5.6137,-4.6814,4.2,-0.9,1.07
1999-01-15 09:31:08.6259,6.6328,-5.5514,-4.7735,3.6,-1.62,1.09
1999-01-15 09:31:08.6951,6.8817,-5.6268,-4.6604,3.44,-3.58,-0.88
1999-01-15 09:31:08.7643,6.759,-5.7052,-4.6461,4.78,-2.52,-0.87
1999-01-15 09:31:08.8335,6.8907,-5.7872,-4.7143,5.74,-3.18,-0.55
1999-01-15 09:31:08.9027,6.683,-5.6406,-4.4217,5.48,-1.9,-0.22
1999-01-15 09:31:08.9719,6.9655,-5.6616,-4.4474,3.05,-0.46,0.23
1999-01-15 09:31:09.0410,6.8117,-5.7561,-4.6963,1.73,2.02,1.16
1999-01-15 09:31:09.1102,6.5418,-5.6975,-4.6443,0.73,2.89,0.6
1999-01-15 09:31:09.1794,6.698,-5.7896,-4.7532,-1.42,1.71,0.36
1999-01-15 09:31:09.2486,6.777,-5.78,-4.7753,0.03,2.97,-0.57
1999-01-15 09:31:09.3178,6.8476,-5.6508,-4.7113,-1.53,2.62,0.27
1999-01-15 09:31:09.3870,6.6316,-5.5826,-4.7221,-2.13,3.35,-0.04
1999-01-15 09:31:09.4562,6.7076,-5.7202,-4.7807,-3.32,2.21,-0.44
1999-01-15 09:31:09.5254,6.8039,-5.8309,-4.8286,-2.23,3.68,-0.46
1999-01-15 09:31:09.5945,6.7178,-5.6328,-4.7777,-2.64,3.24,0.79
1999-01-15 09:31:09.6637,6.7118,-5.5185,-4.7227,-2.22,3.28,0.71
1999-01-15 09:31:09.7329,6.768,-5.5503,-4.6209,-2.7,4.04,0.16
1999-01-15 09:31:09.8021,6.9691,-5.6693,-4.9088,-3.21,4.59,1.03
1999-01-15 09:31:09.8713,6.6759,-5.5263,-4.8112,-1.73,5.88,1.14
1999-01-15 09:31:09.9405,6.7291,-5.5957,-4.9165,-1.4,4.53,0.11
1999-01-15 09:31:10.0097,6.8063,-5.561,-4.8435,-1.51,3.72,0.18
1999-01-15 09:31:10.0789,6.9362,-5.6484,-5.0739,0.25,2.3,0.62
1999-01-15 09:31:10.1481,6.7028,-5.4216,-4.7502,1.26,0.6,-0.59
1999-01-15 09:31:10.2172,6.9697,-5.5544,-4.7909,0.85,-0.12,-0.71
1999-01-15 09:31:10.2864,6.6771,-5.5556,-4.6861,1.86,0.33,-0.58
1999-01-15 09:31:10.3556,7.0876,-5.5598,-4.667,1.93,0.58,0.12
1999-01-15 09:31:10.4248,6.8105,-5.4725,-4.5701,1.35,1.76,1.1
1999-01-15 09:31:10.4940,6.9463,-5.5179,-4.7657,1.72,2.51,0.96
1999-01-15 09:31:10.5632,6.7698,-5.4258,-4.67,0.46,3.39,1.2
1999-01-15 09:31:10.6324,6.8219,-5.5556,-4.7771,-0.82,3.3,0.46
1999-01-15 09:31:10.7016,6.844,-5.6077,-4.7209,-1.28,3.56,0.84
1999-01-15 09:31:10.7707,6.9469,-5.5209,-4.7819,-1.05,4.49,2.23
1999-01-15 09:31:10.8399,6.8003,-5.4204,-4.5922,-1.57,2.97,1.67
1999-01-15 09:31:10.9091,7.0894,-5.5802,-4.7717,-1.27,4.08,2.07
1999-01-15 09:31:10.9783,6.7626,-5.4641,-4.6993,-1.26,3.59,2.46
1999-01-15 09:31:11.0475,6.9086,-5.5844,-4.8717,-0.66,3.94,1.99
1999-01-15 09:31:11.1167,6.841,-5.5616,-4.7125,-1.41,2.99,2.49
1999-01-15 09:31:11.1859,6.7746,-5.5341,-4.7669,-1.12,3.59,2.42
1999-01-15 09:31:11.2551,6.8243,-5.506,-4.7873,-1.17,3.76,2.02
1999-01-15 09:31:11.3242,6.7764,-5.5748,-4.7328,-1.16,3.03,1.05
1999-01-15 09:31:11.3934,6.8458,-5.5993,-4.7472,-0.92,3.89,0.98
1999-01-15 09:31:11.4626,6.8973,-5.6119,-4.8124,-1.19,3.63,1.16
1999-01-15 09:31:11.5318,6.7387,-5.5909,-4.7801,-0.74,2.56,0.98
1999-01-15 09:31:11.6010,6.9463,-5.5981,-4.7843,0.11,3.46,0.82
1999-01-15 09:31:11.6702,6.7195,-5.4928,-4.6634,-0.95,2.63,1.65
1999-01-15 09:31:11.7394,6.8608,-5.5401,-4.7651,-0.39,2.44,1.16
1999-01-15 09:31:11.8086,6.8267,-5.5784,-4.7538,-0.74,1.92,1.74
1999-01-15 09:31:11.8777,6.8943,-5.5419,-4.7478,-0.2,2.43,1.45
1999-01-15 09:31:11.9469,6.8075,-5.5299,-4.7466,0.38,2.0,1.5
1999-01-15 09:31:12.0161,6.8769,-5.5096,-4.7005,0.6,2.06,0.69
1999-01-15 09:31:12.0853,6.8356,-5.6137,-4.7777,0.19,2.21,0.71
1999-01-15 09:31:12.1545,6.71,-5.5754,-4.7496,0.11,2.27,0.39
1999-01-15 09:31:12.2237,6.9822,-5.6023,-4.8196,0.92,2.27,0.78
1999-01-15 09:31:12.2929,6.7537,-5.5215,-4.7143,1.09,1.12,0.75
1999-01-15 09:31:12.3621,6.9434,-5.5993,-4.7274,0.68,1.62,0.28
1999-01-15 09:31:12.4312,6.7231,-5.494,-4.6742,0.12,1.93,1.15
1999-01-15 09:31:12.5004,6.7345,-5.5538,-4.734,0.24,2.81,0.56
1999-01-15 09:31:12.5696,6.8739,-5.6035,-4.734,-0.43,2.77,0.29
1999-01-15 09:31:12.6388,6.8751,-5.6681,-4.8579,-0.09,2.38,1.16
1999-01-15 09:31:12.7080,6.7477,-5.5676,-4.7478,0.37,2.37,0.59
1999-01-15 09:31:12.7772,6.7692,-5.6155,-4.7921,0.21,2.68,0.28
1999-01-15 09:31:12.8464,6.8338,-5.6897,-4.8453,0.22,2.28,0.4
1999-01-15 09:31:12.9156,6.8919,-5.6879,-4.8818,0.66,1.65,0.78
1999-01-15 09:31:12.9847,6.8093,-5.5383,-4.7406,0.6,0.84,0.84
1999-01-15 09:31:13.0539,6.7644,-5.5221,-4.7472,-0.43,1.23,1.72
1999-01-15 09:31:13.1231,6.8362,-5.5897,-4.8453,-0.46,1.5,0.96
1999-01-15 09:31:13.1923,6.8297,-5.5556,-4.8058,0.32,2.26,1.24
1999-01-15 09:31:13.2615,6.8201,-5.5395,-4.7609,-0.24,1.67,1.02
1999-01-15 09:31:13.3307,6.8201,-5.5221,-4.7053,-0.28,2.36,0.95
1999-01-15 09:31:13.3999,6.841,-5.5437,-4.8148,-0.2,3.2,1.14
1999-01-15 09:31:13.4691,6.7237,-5.558,-4.8519,-0.41,2.53,0.65
1999-01-15 09:31:13.5382,6.832,-5.5844,-4.8184,-0.3,2.16,0.59
1999-01-15 09:31:13.6074,6.7908,-5.6065,-4.8411,0.38,2.07,0.64
1999-01-15 09:31:13.6766,6.7937,-5.5987,-4.8136,0.29,1.8,0.68
1999-01-15 09:31:13.7458,6.8279,-5.561,-4.8441,0.74,1.31,1.2
1999-01-15 09:31:13.8150,6.8033,-5.5443,-4.7191,0.66,1.28,-0.36
1999-01-15 09:31:13.8842,6.7429,-5.5712,-4.7574,0.57,2.41,0.29
1999-01-15 09:31:13.9534,6.9248,-5.5814,-4.8352,0.7,2.12,-0.03
1999-01-15 09:31:14.0226,6.7441,-5.4497,-4.7101,1.17,2.44,0.78
1999-01-15 09:31:14.0917,6.8608,-5.5137,-4.7604,0.49,2.34,0.07
1999-01-15 09:31:14.1609,6.832,-5.5137,-4.7107,0.02,3.19,0.87
1999-01-15 09:31:14.2301,6.8566,-5.5622,-4.8358,-0.2,2.83,0.78
1999-01-15 09:31:14.2993,6.8626,-5.5281,-4.822,-0.15,1.89,2.06
1999-01-15 09:31:14.3685,6.7566,-5.4898,-4.7735,0.45,1.68,1.58
1999-01-15 09:31:14.4377,6.8003,-5.5832,-4.8477,0.34,1.84,1.44
1999-01-15 09:31:14.5079,6.841,-5.5616,-4.8322,0.36,1.93,1.1
1999-01-15 09:31:14.5771,6.7914,-5.5526,-4.7568,0.44,2.41,0.68
1999-01-15 09:31:14.6463,6.6693,-5.5862,-4.7921,0.52,3.09,-0.07
1999-01-15 09:31:14.7155,6.9134,-5.6825,-4.9494,1.15,3.32,0.4
1999-01-15 09:31:14.7847,6.6992,-5.5718,-4.8088,1.51,1.41,0.94
1999-01-15 09:31:14.8539,6.8189,-5.5209,-4.6413,0.99,1.8,1.43
1999-01-15 09:31:14.9232,6.7728,-5.5497,-4.6832,0.04,2.05,1.14
1999-01-15 09:31:14.9924,6.8554,-5.6071,-4.7478,0.11,3.04,1.64
1999-01-15 09:31:15.0616,6.7955,-5.5808,-4.8178,-0.13,2.48,1.04
1999-01-15 09:31:15.1308,6.8081,-5.5718,-4.7957,0.12,2.52,0.89
1999-01-15 09:31:15.2000,6.6998,-5.6394,-4.8495,0.37,2.53,0.5
1999-01-15 09:31:15.2692,6.8853,-5.6687,-4.8052,0.66,2.13,0.75
1999-01-15 09:31:15.3384,6.7303,-5.6364,-4.7992,0.52,1.44,1.12
1999-01-15 09:31:15.4076,6.8045,-5.6185,-4.6682,-0.02,2.42,0.47
1999-01-15 09:31:15.4769,6.8554,-5.5868,-4.7023,-1.24,3.19,0.66
1999-01-15 09:31:15.5461,6.6346,-5.5395,-4.7771,-1.93,4.08,1.09
1999-01-15 09:31:15.6153,6.9475,-5.6418,-4.8166,-1.94,3.39,0.36
1999-01-15 09:31:15.6845,6.768,-5.5945,-4.7011,-3.08,3.87,0.97
1999-01-15 09:31:15.7537,6.853,-5.6065,-4.7747,-2.9,5.13,1.82
1999-01-15 09:31:15.8229,6.786,-5.4796,-4.6401,-3.67,6.31,2.24
1999-01-15 09:31:15.8921,6.9248,-5.5024,-4.5204,-5.45,8.02,2.51
1999-01-15 09:31:15.9614,6.9128,-5.6819,-4.5521,-8.72,9.45,4.35
1999-01-15 09:31:16.0306,6.9816,-5.7627,-4.7514,-10.33,11.94,6.77
1999-01-15 09:31:16.0998,6.7632,-5.5658,-4.603,-12.42,13.31,9.05
1999-01-15 09:31:16.1690,7.0373,-5.5293,-4.7095,-13.49,14.81,10.27
1999-01-15 09:31:16.2382,6.8231,-5.4874,-4.5234,-16.09,16.49,12.06
1999-01-15 09:31:16.3074,6.9733,-5.5891,-4.6311,-17.89,17.2,12.18
1999-01-15 09:31:16.3766,6.9942,-5.5413,-4.6,-17.6,18.14,12.68
1999-01-15 09:31:16.4458,6.9721,-5.3821,-4.5844,-16.7,18.1,12.2
1999-01-15 09:31:16.5151,7.0062,-5.4449,-4.8926,-15.42,17.08,10.59
1999-01-15 09:31:16.5843,6.7243,-5.336,-4.9949,-12.7,15.54,9.58
1999-01-15 09:31:16.6535,6.8111,-5.421,-4.877,-11.71,10.99,6.7
1999-01-15 09:31:16.7227,7.0056,-5.6556,-4.8806,-9.88,8.73,6.39
1999-01-15 09:31:16.7919,6.838,-5.5718,-4.685,-7.51,6.63,6.02
1999-01-15 09:31:16.8611,6.9439,-5.5413,-4.7819,-4.25,6.68,5.94
1999-01-15 09:31:16.9303,6.8991,-5.4072,-4.6742,-3.1,6.52,4.63
1999-01-15 09:31:16.9996,6.7698,-5.5281,-4.8196,-2.8,5.71,3.37
1999-01-15 09:31:17.0688,6.8937,-5.5718,-4.6945,-2.24,4.83,2.2
1999-01-15 09:31:17.1380,6.8931,-5.6155,-4.7939,-1.04,4.54,2.3
1999-01-15 09:31:17.2072,6.8524,-5.5179,-4.7137,0.2,3.43,1.36
1999-01-15 09:31:17.2764,6.914,-5.5006,-4.7173,0.85,2.73,0.81
1999-01-15 09:31:17.3456,6.8428,-5.4934,-4.6508,0.59,1.92,-0.17
1999-01-15 09:31:17.4148,6.8267,-5.6089,-4.576,0.15,1.56,-1.61
1999-01-15 09:31:17.4840,7.0307,-5.6514,-4.6574,0.5,2.64,-0.14
1999-01-15 09:31:17.5533,6.8057,-5.5796,-4.7179,1.07,1.24,0.16
1999-01-15 09:31:17.6225,6.9918,-5.5048,-4.6323,1.14,-0.03,-0.11
1999-01-15 09:31:17.6917,6.8033,-5.5072,-4.6856,1.23,0.32,-0.45
1999-01-15 09:31:17.7609,6.8309,-5.5078,-4.6353,1.64,0.24,-1.48
1999-01-15 09:31:17.8301,7.0152,-5.5891,-4.6975,1.7,-0.16,-1.69
1999-01-15 09:31:17.8993,6.8883,-5.5736,-4.7615,2.74,-0.25,-1.33
1999-01-15 09:31:17.9685,6.8398,-5.5245,-4.7454,3.02,-1.0,-1.92
1999-01-15 09:31:18.0378,6.9326,-5.4916,-4.7687,3.64,-0.28,-2.01
1999-01-15 09:31:18.1070,6.8506,-5.4318,-4.7903,4.52,-1.35,-2.72
1999-01-15 09:31:18.1762,7.005,-5.4348,-4.6634,4.24,-2.0,-3.2
1999-01-15 09:31:18.2454,6.9607,-5.4288,-4.6131,4.25,-1.31,-2.93
1999-01-15 09:31:18.3146,6.9589,-5.5568,-4.6437,3.77,-1.86,-3.4
1999-01-15 09:31:18.3838,6.8781,-5.5838,-4.74,4.11,-1.03,-1.54
1999-01-15 09:31:18.4530,6.9793,-5.5688,-4.825,4.59,-1.27,-1.23
1999-01-15 09:31:18.5222,6.9116,-5.4378,-4.7304,3.86,-1.5,-0.03
1999-01-15 09:31:18.5915,6.7806,-5.4814,-4.7651,3.4,-1.31,-0.94
1999-01-15 09:31:18.6607,6.9134,-5.5185,-4.7221,3.17,-0.71,-0.37
1999-01-15 09:31:18.7299,6.8967,-5.5084,-4.7442,2.26,-1.35,-0.27
1999-01-15 09:31:18.7991,7.0056,-5.5257,-5.0943,4.35,-2.61,0.77
1999-01-15 09:31:18.8683,6.716,-5.251,-5.1032,8.0,-6.82,-0.88
1999-01-15 09:31:18.9375,6.8775,-5.2852,-5.2205,13.0,-10.3,-3.64
1999-01-15 09:31:19.0067,6.5795,-5.202,-4.9818,16.96,-14.0,-7.18
1999-01-15 09:31:19.0760,6.777,-5.5108,-5.0326,20.51,-16.16,-10.63
1999-01-15 09:31:19.1452,6.8404,-5.7477,-4.9153,23.37,-18.17,-11.3
1999-01-15 09:31:19.2144,6.6094,-5.6759,-4.7352,25.16,-18.38,-10.92
1999-01-15 09:31:19.2836,6.7064,-5.6867,-4.6844,23.68,-16.63,-11.55
1999-01-15 09:31:19.3528,6.5891,-5.8453,-4.6628,19.23,-15.33,-10.5
1999-01-15 09:31:19.4220,6.698,-5.9811,-4.8238,16.19,-12.22,-7.91
1999-01-15 09:31:19.4912,6.3276,-5.8142,-4.6365,13.14,-9.29,-5.84
1999-01-15 09:31:19.5604,6.7339,-5.8925,-4.6945,10.03,-6.18,-4.77
1999-01-15 09:31:19.6297,6.4754,-5.8955,-4.7418,6.02,-3.19,-2.19
1999-01-15 09:31:19.6989,6.5771,-5.8333,-4.8268,3.91,-1.07,-1.05
1999-01-15 09:31:19.7681,6.6154,-5.7399,-4.8112,2.42,0.94,-0.15
1999-01-15 09:31:19.8373,6.5424,-5.7082,-4.8525,0.59,1.1,0.09
1999-01-15 09:31:19.9065,6.6687,-5.7549,-4.892,0.5,2.89,0.25
1999-01-15 09:31:19.9757,6.537,-5.8614,-4.9554,-0.66,2.17,0.06
1999-01-15 09:31:20.0449,6.5777,-5.7729,-4.7789,-1.29,3.44,0.85
1999-01-15 09:31:20.1142,6.5388,-5.7531,-4.8543,-1.65,4.07,1.03
1999-01-15 09:31:20.1834,6.7543,-5.856,-4.9704,-1.75,3.98,1.61
1999-01-15 09:31:20.2526,6.4455,-5.7489,-4.8717,-1.55,3.79,1.76
1999-01-15 09:31:20.3218,6.7112,-5.7627,-4.962,-0.68,3.9,1.81
1999-01-15 09:31:20.3910,6.4724,-5.6562,-4.9034,-0.46,3.74,2.11
1999-01-15 09:31:20.4602,6.7279,-5.713,-4.8076,-0.3,2.9,0.88
1999-01-15 09:31:20.5294,6.5334,-5.7794,-4.8651,0.35,3.42,1.33
1999-01-15 09:31:20.5986,6.6238,-5.8339,-4.9596,0.46,2.8,1.01
1999-01-15 09:31:20.6679,6.4628,-5.7094,-4.8818,1.57,3.6,0.25
1999-01-15 09:31:20.7371,6.5879,-5.7411,-4.8375,0.39,2.97,-0.86
1999-01-15 09:31:20.8063,6.6011,-5.7328,-4.6736,-1.56,4.55,-0.9
1999-01-15 09:31:20.8755,6.5472,-5.8285,-4.8519,-3.31,6.15,-0.13
1999-01-15 09:31:20.9447,6.3779,-5.8955,-4.892,-2.71,7.64,-0.56
1999-01-15 09:31:21.0139,6.6477,-5.6819,-4.5174,-2.77,9.21,-1.76
1999-01-15 09:31:21.0831,6.6603,-5.3737,-4.4324,-7.68,11.73,-0.9
1999-01-15 09:31:21.1524,6.7213,-5.4024,-4.7568,-9.47,16.3,-3.05
1999-01-15 09:31:21.2216,6.6429,-5.3336,-4.4659,-10.54,19.2,-4.76
1999-01-15 09:31:21.2908,7.0696,-5.5724,-4.6161,-14.16,21.86,-5.33
1999-01-15 09:31:21.3600,7.0008,-5.78,-4.5336,-17.47,24.56,-3.55
1999-01-15 09:31:21.4292,7.3269,-5.9243,-4.6514,-22.46,23.08,1.87
1999-01-15 09:31:21.4984,7.4125,-5.8285,-5.2361,-26.47,19.9,8.74
1999-01-15 09:31:21.5676,7.6477,-5.4144,-5.1613,-27.06,12.38,18.09
1999-01-15 09:31:21.6368,6.8596,-4.7592,-4.6891,-20.75,9.28,20.46
1999-01-15 09:31:21.7061,7.3419,-4.8124,-4.5569,-14.95,3.6,16.23
1999-01-15 09:31:21.7753,7.4975,-4.7364,-4.1374,-7.75,5.85,11.37
1999-01-15 09:31:21.8445,7.2126,-4.5371,-3.8346,-8.03,7.45,3.26
1999-01-15 09:31:21.9137,7.306,-4.8962,-4.6269,-8.44,8.08,-0.56
1999-01-15 09:31:21.9829,6.8219,-4.8735,-4.1769,-2.13,10.92,-8.35
1999-01-15 09:31:22.0521,6.865,-4.9225,-3.9693,-1.63,8.72,-18.93
1999-01-15 09:31:22.1213,7.9176,-5.78,-4.5958,3.2,3.55,-34.32
1999-01-15 09:31:22.1906,7.4023,-5.2367,-4.9309,5.94,-15.56,-43.02
1999-01-15 09:31:22.2598,6.9745,-4.3564,-4.129,17.74,-11.65,-51.64
1999-01-15 09:31:22.3290,7.7668,-4.156,-4.0967,11.52,-21.22,-49.17
1999-01-15 09:31:22.3982,8.0618,-4.281,-4.5689,5.14,-18.42,-41.55
1999-01-15 09:31:22.4674,7.902,-3.983,-4.2649,-1.16,-18.25,-26.74
1999-01-15 09:31:22.5366,8.6351,-4.211,-5.3983,1.96,-28.19,-17.93
1999-01-15 09:31:22.6058,8.7272,-2.9885,-5.4527,13.43,-29.21,-4.8
1999-01-15 09:31:22.6750,8.3472,-2.1375,-6.1834,22.58,-32.68,-22.0
1999-01-15 09:31:22.7443,10.2927,-1.1041,-5.4533,20.14,-6.97,-40.47
1999-01-15 09:31:22.8135,8.3777,-1.0646,-5.7573,-5.08,4.81,-7.08
1999-01-15 09:31:22.8827,7.0505,-1.7773,-8.0085,-14.07,7.37,11.28
1999-01-15 09:31:22.9519,5.6119,-0.8378,-7.2001,-9.63,13.94,15.65
1999-01-15 09:31:23.0211,5.6179,-1.2614,-7.0247,-13.41,8.97,-0.3
1999-01-15 09:31:23.0903,6.7896,-2.0184,-7.3215,-13.48,-1.95,-4.62
1999-01-15 09:31:23.1595,7.5023,-2.3966,-6.9272,-0.1,-0.04,-5.85
1999-01-15 09:31:23.2288,8.2934,-2.4607,-6.7094,13.66,1.12,-0.49
1999-01-15 09:31:23.2980,7.9134,-1.5666,-5.9536,20.62,8.04,8.91
1999-01-15 09:31:23.3672,8.0468,-1.9939,-5.9632,18.72,7.09,12.14
1999-01-15 09:31:23.4364,8.4376,-2.9699,-5.5024,7.33,-7.06,17.42
1999-01-15 09:31:23.5056,8.1462,-3.5893,-5.9524,5.92,-14.43,22.9
1999-01-15 09:31:23.5748,8.5411,-3.2117,-7.3353,13.74,-40.43,41.78
1999-01-15 09:31:23.6440,7.3203,-3.3786,-7.6638,28.56,14.61,35.04
1999-01-15 09:31:23.7132,6.1702,-2.9944,-6.3946,28.33,25.32,37.63
1999-01-15 09:31:23.7825,6.0972,-3.4474,-5.8489,22.65,27.33,29.16
1999-01-15 09:31:23.8517,5.959,-3.8843,-5.1242,13.9,14.14,24.96
1999-01-15 09:31:23.9209,6.4945,-4.1159,-4.3193,-5.6,11.1,15.46
1999-01-15 09:31:23.9901,6.8165,-5.3618,-5.7489,-5.03,12.13,14.96
1999-01-15 09:31:24.0593,6.5741,-4.8627,-4.9471,-9.21,14.16,23.56
1999-01-15 09:31:24.1285,6.7417,-5.1086,-5.6454,9.4,50.74,8.5
1999-01-15 09:31:24.1977,6.1714,-5.4366,-4.5557,23.89,62.18,19.85
1999-01-15 09:31:24.2670,6.6304,-6.7872,-5.555,64.71,106.6,5.32
1999-01-15 09:31:24.3362,6.9822,-5.4144,-1.4398,29.79,61.57,17.68
1999-01-15 09:31:24.4054,6.9009,-6.2181,-2.4224,8.21,29.17,14.35
1999-01-15 09:31:24.4746,7.358,-6.6848,-2.5941,27.75,67.07,-9.41
1999-01-15 09:31:24.5438,7.1995,-6.108,-0.082,18.32,53.31,-3.32
1999-01-15 09:31:24.6130,6.8123,-5.3971,0.4739,-7.56,21.91,-3.59
1999-01-15 09:31:24.6822,7.9008,-5.8812,-1.4039,-44.24,-31.83,19.24
1999-01-15 09:31:24.7514,7.607,-5.2762,-1.5624,-97.18,-57.02,41.52
1999-01-15 09:31:24.8207,6.4766,-8.1342,-5.1487,-84.8,-21.32,31.69
1999-01-15 09:31:24.8899,6.683,-8.5842,-5.5407,-7.99,30.47,5.93
1999-01-15 09:31:24.9591,6.5179,-6.4616,-2.2231,34.11,62.15,-7.07
1999-01-15 09:31:25.0283,7.0445,-6.7937,-1.7121,61.82,67.18,-3.58
1999-01-15 09:31:25.0975,6.4922,-5.6113,0.8001,59.82,35.6,-1.22
1999-01-15 09:31:25.1667,7.75,-5.1092,0.9012,36.03,28.52,-7.66
1999-01-15 09:31:25.2359,6.8596,-5.7465,0.9293,-3.14,-0.09,-1.86
1999-01-15 09:31:25.3052,7.7644,-5.9368,0.5051,-18.52,-3.03,-6.25
1999-01-15 09:31:25.3744,6.9649,-6.6017,-0.2681,-19.89,4.56,-5.27
1999-01-15 09:31:25.4436,6.8141,-6.6136,-0.7486,-19.45,-9.42,-4.66
1999-01-15 09:31:25.5128,8.1276,-6.911,-1.4691,-12.84,-9.53,-3.07
1999-01-15 09:31:25.5820,7.1791,-6.251,-0.9981,-15.57,-6.23,1.0
1999-01-15 09:31:25.6512,7.3551,-6.1163,-1.4529,-22.16,-12.49,0.12
1999-01-15 09:31:25.7204,7.2126,-5.9979,-1.2962,-34.18,-16.9,-1.21
1999-01-15 09:31:25.7896,8.0271,-6.4993,-2.5067,-40.22,-21.45,2.9
1999-01-15 09:31:25.8589,7.2964,-5.9171,-2.1615,-44.42,-3.8,5.11
1999-01-15 09:31:25.9281,7.9182,-6.2588,-3.3972,-58.72,-18.28,17.61
1999-01-15 09:31:25.9973,7.1803,-5.962,-3.536,-49.9,1.05,19.15
1999-01-15 09:31:26.0665,6.5119,-5.5592,-4.0327,-60.96,-15.81,22.73
1999-01-15 09:31:26.1357,6.8123,-5.5664,-4.749,-54.81,-13.45,10.5
1999-01-15 09:31:26.2049,6.7776,-5.9213,-6.2833,-34.83,-24.14,15.9
1999-01-15 09:31:26.2741,6.5891,-5.3175,-5.6209,-10.03,-3.16,4.65
1999-01-15 09:31:26.3434,6.2671,-5.3827,-5.588,1.0,3.06,1.33
1999-01-15 09:31:26.4126,6.2827,-5.5981,-5.2038,3.55,-3.4,1.86
1999-01-15 09:31:26.4818,6.7106,-5.5425,-4.9836,-1.37,-0.91,3.12
1999-01-15 09:31:26.5510,6.8093,-5.4725,-4.3588,-18.18,-4.8,19.78
1999-01-15 09:31:26.6202,5.7118,-5.8979,-5.351,-33.06,-0.79,29.59
1999-01-15 09:31:26.6894,5.7017,-5.8961,-6.029,-43.07,-9.28,35.07
1999-01-15 09:31:26.7586,5.8614,-6.5071,-7.169,-22.32,10.33,33.43
1999-01-15 09:31:26.8278,4.9477,-6.005,-5.8896,-5.91,13.92,29.02
1999-01-15 09:31:26.8971,4.7945,-5.9739,-5.2935,-8.68,0.34,17.03
1999-01-15 09:31:26.9663,5.8836,-6.0427,-6.4922,-10.72,-13.68,-2.42
1999-01-15 09:31:27.0355,4.9327,-6.0032,-6.6424,-11.62,-33.46,-6.98
1999-01-15 09:31:27.1047,5.1858,-5.6143,-6.549,-0.12,-26.59,-18.57
1999-01-15 09:31:27.1739,4.7819,-5.9213,-6.561,2.43,-27.05,-21.24
1999-01-15 09:31:27.2431,4.6514,-6.1313,-6.2306,2.96,-24.98,-19.47
1999-01-15 09:31:27.3123,4.3355,-6.3336,-6.2582,2.94,-25.49,-16.21
1999-01-15 09:31:27.3816,4.8411,-6.3186,-6.2947,2.95,-22.09,-17.79
1999-01-15 09:31:27.4508,5.2499,-5.6514,-6.6292,12.81,-10.95,-20.43
1999-01-15 09:31:27.5200,4.9644,-4.7813,-7.0247,31.27,0.66,-18.72
1999-01-15 09:31:27.5892,4.4378,-4.1937,-7.1636,39.49,16.83,-25.13
1999-01-15 09:31:27.6584,7.1211,-5.6304,-8.06,24.89,14.32,-39.47
1999-01-15 09:31:27.7276,4.8884,-4.8513,-7.139,24.18,26.86,-21.76
1999-01-15 09:31:27.7968,4.1027,-5.0189,-7.1672,4.54,9.33,-16.01
1999-01-15 09:31:27.8660,5.6604,-4.9201,-7.2384,-3.58,7.56,-13.74
1999-01-15 09:31:27.9353,5.9721,-5.2876,-7.1636,-9.84,9.7,-0.53
1999-01-15 09:31:28.0045,5.6053,-5.1338,-6.7812,-11.34,8.78,11.2
1999-01-15 09:31:28.0737,5.7507,-5.059,-6.4628,-16.87,10.32,20.86
1999-01-15 09:31:28.1429,5.7914,-5.4378,-7.464,-16.84,16.98,30.98
1999-01-15 09:31:28.2121,5.6334,-5.0368,-6.5646,-5.93,23.14,29.95
1999-01-15 09:31:28.2813,6.0356,-5.2636,-6.4114,8.21,28.46,30.11
1999-01-15 09:31:28.3505,5.4222,-5.1068,-5.4491,10.42,24.01,22.18
1999-01-15 09:31:28.4198,6.3216,-5.725,-5.5437,8.36,24.26,17.31
1999-01-15 09:31:28.4890,6.163,-5.6789,-5.3258,4.03,19.31,19.5
1999-01-15 09:31:28.5582,5.6759,-5.4838,-5.0973,-9.55,24.7,29.28
1999-01-15 09:31:28.6274,6.3994,-5.8076,-5.3456,-17.33,29.35,32.7
1999-01-15 09:31:28.6966,4.7843,-6.7112,-5.056,-10.95,37.8,32.94
1999-01-15 09:31:28.7658,6.2133,-7.461,-5.0937,-12.05,49.45,33.85
1999-01-15 09:31:28.8350,4.6419,-7.7368,-5.032,-1.44,41.82,29.65
1999-01-15 09:31:28.9042,4.8274,-7.4053,-3.8962,8.51,47.73,21.98
1999-01-15 09:31:28.9735,5.5042,-8.3903,-3.8484,10.12,37.2,9.37
1999-01-15 09:31:29.0427,5.0051,-7.4388,-3.6712,-0.07,38.69,16.88
1999-01-15 09:31:29.1119,5.2516,-7.1031,-3.0082,-20.16,34.34,19.03
1999-01-15 09:31:29.1811,4.9901,-8.0432,-4.4324,-21.46,26.87,19.71
1999-01-15 09:31:29.2503,5.3061,-7.0002,-4.2978,-22.52,25.5,14.46
1999-01-15 09:31:29.3195,4.9465,-7.8751,-3.983,-15.31,18.98,6.58
1999-01-15 09:31:29.3887,5.2475,-8.0522,-2.6863,-9.96,23.3,4.2
1999-01-15 09:31:29.4580,5.2816,-7.7231,-1.7049,-19.35,30.36,8.14
1999-01-15 09:31:29.5272,5.0889,-7.9158,-2.4607,-21.52,44.9,11.94
1999-01-15 09:31:29.5964,4.9584,-7.2288,-2.2961,-33.25,36.97,8.9
1999-01-15 09:31:29.6656,5.7082,-8.1043,-4.6532,-20.92,37.1,3.89
1999-01-15 09:31:29.7348,6.5107,-6.768,-3.5007,-3.88,35.09,-2.11
1999-01-15 09:31:29.8040,5.2666,-6.5287,-4.0985,7.25,19.4,-19.05
1999-01-15 09:31:29.8732,7.8577,-5.4473,-3.7873,-3.52,11.85,-22.84
1999-01-15 09:31:29.9424,6.1846,-6.5891,-6.1852,-2.93,-12.77,-32.06
1999-01-15 09:31:30.0117,4.0806,-4.7017,-6.0709,6.06,-68.85,-80.84
1999-01-15 09:31:30.0809,6.3288,-2.6653,-7.011,9.79,-113.69,-141.02
1999-01-15 09:31:30.1501,8.2874,-1.0083,-5.5706,-3.39,-130.02,-116.24
1999-01-15 09:31:30.2193,9.0318,-2.578,-7.595,-23.43,-113.99,-51.23
1999-01-15 09:31:30.2885,7.1193,-3.253,-7.9295,-22.39,-46.53,-24.81
1999-01-15 09:31:30.3577,6.5616,-2.7874,-7.6225,-16.83,-2.62,-12.38
1999-01-15 09:31:30.4269,6.0691,-2.8269,-8.2126,-4.93,4.94,-4.75
1999-01-15 09:31:30.4962,5.3701,-2.5397,-8.3586,8.11,9.09,0.02
1999-01-15 09:31:30.5654,5.5048,-2.3182,-8.4932,17.16,0.65,-10.79
1999-01-15 09:31:30.6346,5.3414,-2.1148,-8.9313,31.48,-3.64,-3.41
1999-01-15 09:31:30.7038,4.7759,-1.4535,-6.9541,35.6,-17.16,7.85
1999-01-15 09:31:30.7730,6.3228,-2.9903,-8.3394,31.47,-14.19,-33.8
1999-01-15 09:31:30.8422,6.2893,-2.4463,-6.8781,27.13,-9.79,-51.68
1999-01-15 09:31:30.9114,6.5652,-3.244,-7.3078,15.89,-39.46,-53.24
1999-01-15 09:31:30.9806,6.4132,-2.9909,-8.0857,13.76,-48.4,-60.55
1999-01-15 09:31:31.0499,5.3779,-1.6235,-7.2958,16.9,-80.04,-73.69
1999-01-15 09:31:31.1191,5.1942,-1.3315,-9.1892,11.12,-93.66,-81.79
1999-01-15 09:31:31.1883,4.4647,-0.7624,-8.5309,26.83,-62.74,-72.79
1999-01-15 09:31:31.2575,4.7586,-1.1448,-9.7888,16.12,-54.43,-80.02
1999-01-15 09:31:31.3267,3.6473,0.1843,-9.7762,33.2,-42.74,-77.8
1999-01-15 09:31:31.3959,3.6964,-1.3249,-10.5093,48.84,-31.82,-85.61
1999-01-15 09:31:31.4651,0.8695,-2.1543,-11.7007,74.64,-65.43,-73.38
1999-01-15 09:31:31.5344,1.9807,-2.2117,-10.4716,-0.79,-37.84,-65.84
1999-01-15 09:31:31.6036,-0.3854,-2.3296,-8.96,71.31,-60.84,-38.3
1999-01-15 09:31:31.6728,0.9329,-2.6934,-8.7523,55.77,-45.51,-12.33
1999-01-15 09:31:31.7420,0.2687,-3.9567,-8.9355,49.92,-40.99,-3.21
1999-01-15 09:31:31.8112,0.5356,-4.5952,-9.4734,15.44,-24.85,2.73
1999-01-15 09:31:31.8804,-0.4344,-5.105,-9.5488,26.88,-19.78,5.04
1999-01-15 09:31:31.9496,-0.6894,-4.4689,-9.7888,-6.85,-46.86,16.34
1999-01-15 09:31:32.0188,-1.9927,-3.5366,-9.0402,-57.01,-51.04,-4.34
1999-01-15 09:31:32.0881,-2.9926,-2.0304,-9.0635,-62.88,-52.59,-11.31
1999-01-15 09:31:32.1573,-2.049,-1.3524,-9.3663,-40.59,-47.28,-38.7
1999-01-15 09:31:32.2265,-2.3003,-2.332,-10.0359,-34.2,-27.72,-19.97
1999-01-15 09:31:32.2957,-1.4757,-2.7551,-10.9234,-24.0,31.76,-11.83
1999-01-15 09:31:32.3649,-0.3573,-2.2494,-11.2519,-35.26,95.58,-19.86
1999-01-15 09:31:32.4341,0.2388,-1.2626,-9.772,-20.87,79.26,-10.01
1999-01-15 09:31:32.5033,0.7037,-0.7881,-9.6212,-6.31,52.44,-29.17
1999-01-15 09:31:32.5726,1.5313,-1.0406,-8.489,13.83,24.4,-82.3
1999-01-15 09:31:32.6418,0.1586,-1.3482,-11.2022,16.57,-74.52,-92.77
1999-01-15 09:31:32.7110,-0.3088,-1.1621,-10.3794,9.61,0.66,-42.53
1999-01-15 09:31:32.7802,-0.0802,-1.2237,-10.1377,0.55,12.83,-2.91
1999-01-15 09:31:32.8494,0.1897,-1.4559,-9.9037,-1.58,26.69,12.71
1999-01-15 09:31:32.9186,0.5924,-1.3339,-9.7008,-3.47,32.59,10.45
1999-01-15 09:31:32.9878,0.8892,-1.1968,-9.5028,-9.07,42.06,0.42
1999-01-15 09:31:33.0570,0.4901,-1.0604,-9.7637,-12.54,-21.4,-15.54
1999-01-15 09:31:33.1263,0.6014,-0.9078,-9.8983,-6.94,-32.02,-16.42
1999-01-15 09:31:33.1955,-0.2663,-0.1083,-9.3998,-38.61,-24.34,-8.94
1999-01-15 09:31:33.2647,0.0455,-0.1005,-10.5069,-26.35,-2.24,9.42
1999-01-15 09:31:33.3339,0.5661,0.6451,-10.5554,-23.51,15.49,16.28
1999-01-15 09:31:33.4031,0.0993,0.094,-10.4794,5.71,-19.46,17.27
1999-01-15 09:31:33.4723,-0.1364,0.0174,-10.6146,9.78,-17.5,32.45
1999-01-15 09:31:33.5415,0.4315,0.1586,-10.5488,15.86,-22.45,52.89
1999-01-15 09:31:33.6107,-0.6325,-1.2387,-10.0443,36.3,4.93,85.79
1999-01-15 09:31:33.6800,-1.207,-0.3991,-10.474,19.83,-93.19,97.94
1999-01-15 09:31:33.7492,-0.6385,-0.9293,-8.8589,-15.4,19.46,116.55
1999-01-15 09:31:33.8184,-0.6379,0.8994,-10.088,-52.35,16.75,85.74
1999-01-15 09:31:33.8876,0.2501,1.9239,-9.8582,10.54,95.83,21.18
1999-01-15 09:31:33.9568,1.5265,-0.2938,-8.8876,25.41,54.64,-31.56
1999-01-15 09:31:34.0260,1.3129,0.2088,-7.4125,-4.16,4.86,-45.12
1999-01-15 09:31:34.0952,2.1333,-1.2764,-8.5255,5.59,-65.35,-49.79
1999-01-15 09:31:34.1645,0.8468,-3.1434,-5.5532,32.92,37.15,-67.05
1999-01-15 09:31:34.2337,5.1691,-0.8928,-4.5575,-15.9,47.81,-83.32
1999-01-15 09:31:34.3029,0.0413,-0.6373,-14.6359,-57.63,116.91,-59.94
1999-01-15 09:31:34.3721,2.5014,-1.5313,-11.7647,0.96,-44.61,-77.77
1999-01-15 09:31:34.4413,1.8766,3.0531,-9.4202,18.4,-6.93,-109.69
1999-01-15 09:31:34.5105,0.5446,3.2416,-11.3931,-3.76,-116.33,-104.69
1999-01-15 09:31:34.5797,-3.1937,1.7539,-11.7701,12.78,-70.39,-60.27
1999-01-15 09:31:34.6489,-0.8336,1.888,-9.1192,22.1,7.84,-28.29
1999-01-15 09:31:34.7182,-1.6995,0.7935,-10.7277,-3.23,-42.49,-4.9
1999-01-15 09:31:34.7889,-2.3721,1.268,-11.7833,-0.54,-35.0,8.09
1999-01-15 09:31:34.8581,-1.9406,1.3357,-9.1018,9.64,-18.38,13.98
1999-01-15 09:31:34.9272,-3.2452,1.7228,-4.9489,-0.26,-51.77,-0.95
1999-01-15 09:31:34.9964,-1.4236,2.4948,-9.4884,14.04,-101.8,8.94
1999-01-15 09:31:35.0656,-1.0239,1.2184,-10.0569,15.58,-33.01,20.94
1999-01-15 09:31:35.1348,-2.3745,-0.3722,-10.9712,16.76,-77.39,-4.73
1999-01-15 09:31:35.2040,-1.2597,-0.7582,-10.5757,0.14,-66.37,-30.56
1999-01-15 09:31:35.2731,-1.2537,-2.3829,-8.5932,74.72,28.72,-92.58
1999-01-15 09:31:35.3423,0.225,-3.0848,-5.6879,111.63,-122.83,-104.67
1999-01-15 09:31:35.4115,-6.7279,-0.2753,-3.3499,52.04,-95.45,-50.44
1999-01-15 09:31:35.4807,-4.9405,-5.3887,-8.4597,5.66,-78.89,-92.24
1999-01-15 09:31:35.5499,-6.1493,-3.1213,-6.3294,-74.7,-62.15,-30.88
1999-01-15 09:31:35.6190,-4.1296,0.0341,-10.1616,-129.83,39.64,4.66
1999-01-15 09:31:35.6882,-12.6037,4.7831,10.4177,-228.08,-91.86,-193.0
1999-01-15 09:31:35.7574,-4.1075,-6.0308,-4.8854,-189.11,162.95,-93.46
1999-01-15 09:31:35.8266,-4.6736,-4.4193,-12.858,-203.99,118.03,-145.31
1999-01-15 09:31:35.8958,-2.4457,-4.8346,-12.5295,-100.28,38.54,-54.01
1999-01-15 09:31:35.9650,1.7527,-4.8154,-8.1833,65.16,97.54,-70.3
1999-01-15 09:31:36.0341,-3.1608,-3.2679,-9.0276,168.84,-139.87,46.74
1999-01-15 09:31:36.1033,-2.4373,-7.5196,-9.4166,69.76,-42.63,51.66
1999-01-15 09:31:36.1725,-3.0962,-5.1619,-9.1826,-141.98,36.08,-112.51
1999-01-15 09:31:36.2417,-2.9837,-5.6478,-7.3263,-213.95,-31.09,-219.42
1999-01-15 09:31:36.3109,0.1867,-4.1254,-12.2889,-15.06,33.29,-74.47
1999-01-15 09:31:36.3800,2.3984,-0.4548,-8.1366,41.72,55.97,52.57
1999-01-15 09:31:36.4492,-0.891,-4.5174,-9.5099,-12.06,108.79,165.97
1999-01-15 09:31:36.5184,2.7545,-3.7682,-11.1149,-73.72,26.85,70.88
1999-01-15 09:31:36.5876,0.5164,-5.2445,-8.5926,31.59,4.53,29.65
1999-01-15 09:31:36.6568,-1.1717,-3.6988,-7.8152,65.21,-43.65,11.35
1999-01-15 09:31:36.7259,-1.1813,-1.803,-10.0772,-30.14,11.76,-46.59
1999-01-15 09:31:36.7951,-0.9048,-2.4236,-10.3651,29.93,2.74,4.88
1999-01-15 09:31:36.8643,-0.7564,-3.5701,-9.4872,-49.82,4.39,26.68
1999-01-15 09:31:36.9335,-1.1986,-0.8677,-11.3716,-29.66,5.68,23.98
1999-01-15 09:31:37.0027,-0.7396,-3.9956,-10.3447,164.51,-56.09,-34.89
1999-01-15 09:31:37.0718,-2.0316,-2.2602,-10.0904,-38.04,7.76,-12.78
1999-01-15 09:31:37.1410,-0.9216,-4.3666,-9.9863,4.76,-48.72,39.71
1999-01-15 09:31:37.2102,-1.7815,-3.5426,-11.0472,-9.13,17.49,30.59
1999-01-15 09:31:37.2794,-0.9251,-3.0872,-9.9557,29.28,64.34,32.54
1999-01-15 09:31:37.3486,-2.1016,-4.7723,-6.8847,0.24,-1.16,19.92
1999-01-15 09:31:37.4177,-1.3093,-3.4887,-8.2359,-50.1,5.72,14.22
1999-01-15 09:31:37.4869,2.0819,-2.0077,-10.1586,0.07,-23.78,-19.36
1999-01-15 09:31:37.5561,-5.6274,1.7264,-12.1519,35.14,22.36,-149.72
1999-01-15 09:31:37.6253,-0.2292,-5.8913,-7.692,73.98,-6.56,-70.46
1999-01-15 09:31:37.6945,1.0664,-8.1725,-5.3564,128.01,27.78,39.49
1999-01-15 09:31:37.7637,-1.5475,-6.0134,-7.2832,-58.91,22.65,13.98
1999-01-15 09:31:37.8328,-0.3495,-5.1715,-10.9479,-91.79,111.49,44.8
1999-01-15 09:31:37.9020,0.1394,-1.3333,-9.419,-87.32,101.31,1.41
1999-01-15 09:31:37.9712,0.9993,-3.2865,-9.6512,-7.36,110.66,49.27
1999-01-15 09:31:38.0404,4.816,-2.8562,-11.7893,48.29,71.72,29.22
1999-01-15 09:31:38.1096,0.7791,-1.6241,-7.7207,42.37,-44.4,32.47
1999-01-15 09:31:38.1787,-0.3273,-2.9352,-6.187,21.53,-23.48,0.0
1999-01-15 09:31:38.2479,0.4081,-1.8634,-11.0742,-188.98,141.03,-3.37
