dateTime_UTC,ax,ay,az,gx,gy,gz,Actividades
1999-01-15 09:29:33.130900,3.2781,5.1786,6.6842,4.44,10.84,-13.47,
1999-01-15 09:29:33.199900,3.8579,5.9117,6.7297,11.44,26.7,3.67,
1999-01-15 09:29:33.268900,2.8185,5.7699,7.1875,-5.08,6.07,-3.13,
1999-01-15 09:29:33.337900,3.5258,5.5149,6.908,-4.18,1.65,3.19,
1999-01-15 09:29:33.406800,3.6533,5.5544,7.1432,-7.14,0.39,1.86,
1999-01-15 09:29:33.475800,3.013,5.2367,6.4874,-9.49,-1.51,1.53,
1999-01-15 09:29:33.544800,3.5743,6.3348,6.5251,2.52,3.16,-5.56,
1999-01-15 09:29:33.613800,2.7323,5.5293,7.8679,5.17,-0.38,-7.73,
1999-01-15 09:29:33.682800,3.4732,5.5,6.8793,4.12,2.41,-0.84,
1999-01-15 09:29:33.751800,3.5581,5.4395,7.2061,-8.01,-0.06,0.41,
1999-01-15 09:29:33.820800,3.0381,5.1786,7.1971,-11.78,-4.36,9.28,
1999-01-15 09:29:33.889800,3.4468,4.7705,7.1522,-17.58,5.01,-6.06,
1999-01-15 09:29:33.958800,3.8226,3.9806,6.8039,-7.47,25.1,6.39,
1999-01-15 09:29:34.027800,3.3038,4.6742,7.5154,-22.03,23.98,3.95,
1999-01-15 09:29:34.096800,2.4499,4.1919,8.343,-31.95,20.06,5.2,
1999-01-15 09:29:34.165700,2.9561,3.8161,8.9139,-49.15,3.61,14.02,
1999-01-15 09:29:34.234700,3.9381,3.6683,7.8529,-52.94,20.06,8.79,
1999-01-15 09:29:34.303700,2.5157,2.8766,8.6512,-59.85,30.09,0.72,
1999-01-15 09:29:34.372700,2.4349,2.4954,9.3454,-51.0,21.45,2.23,
1999-01-15 09:29:34.441700,1.7922,1.9819,9.1437,-38.08,9.76,3.67,
1999-01-15 09:29:34.510700,2.6085,1.6157,8.6973,-34.4,13.06,4.12,
1999-01-15 09:29:34.579700,2.1537,0.9587,8.3718,-26.92,-5.16,2.11,
1999-01-15 09:29:34.648700,2.1579,0.362,9.2107,-34.54,-24.51,-5.85,
1999-01-15 09:29:34.717700,2.8532,0.2824,9.9737,-37.95,-42.37,-13.22,
1999-01-15 09:29:34.786700,2.627,-0.0191,9.6105,-32.37,-26.6,-15.65,
1999-01-15 09:29:34.855700,3.688,0.0275,9.2089,-34.15,-8.1,-12.47,
1999-01-15 09:29:34.924700,3.1464,-0.7157,9.8534,-15.73,-4.88,-7.41,
1999-01-15 09:29:34.993600,3.3319,-0.6726,8.9049,-9.2,-1.17,-3.05,
1999-01-15 09:29:35.062600,3.0112,-0.8114,9.1186,-6.07,1.66,3.92,
1999-01-15 09:29:35.131600,3.5929,-0.3477,8.7158,-6.65,6.71,0.25,
1999-01-15 09:29:35.200600,3.4121,-0.9287,9.6847,-8.47,11.31,-1.53,
1999-01-15 09:29:35.269600,3.1099,-0.9096,8.9618,-3.32,11.98,-2.02,
1999-01-15 09:29:35.338600,3.2153,-1.1555,9.0504,-6.67,11.96,-0.32,
1999-01-15 09:29:35.407600,2.648,-1.2758,9.1413,-6.84,9.54,0.08,
1999-01-15 09:29:35.476600,2.9125,-1.2513,9.1198,-9.62,11.38,0.45,
1999-01-15 09:29:35.545600,2.7078,-1.3321,9.1581,-4.1,8.99,5.21,
1999-01-15 09:29:35.614600,2.852,-1.2351,8.9367,-6.57,7.04,4.9,
1999-01-15 09:29:35.683600,2.7012,-1.4817,9.2484,-0.87,4.9,5.85,
1999-01-15 09:29:35.752600,2.7419,-1.3739,9.0408,-1.93,2.85,3.42,
1999-01-15 09:29:35.821500,2.42,-1.5995,9.0833,-1.47,3.72,2.03,
1999-01-15 09:29:35.890500,2.4912,-1.6181,9.1461,2.8,3.0,2.22,
1999-01-15 09:29:35.959500,2.6115,-1.5858,9.264,4.36,1.85,3.96,
1999-01-15 09:29:36.028500,2.7898,-1.3165,9.4118,7.66,5.36,5.72,
1999-01-15 09:29:36.097500,2.627,-1.1166,8.9181,9.54,5.3,3.46,
1999-01-15 09:29:36.166500,2.7629,-0.9634,9.188,13.78,5.53,9.04,
1999-01-15 09:29:36.235500,2.3105,-1.2608,9.2897,37.19,-7.82,4.93,
1999-01-15 09:29:36.304500,2.4433,-1.2644,10.088,18.1,-20.76,22.33,
1999-01-15 09:29:36.373500,3.1907,0.1711,8.6153,20.13,-7.25,42.46,
1999-01-15 09:29:36.442500,3.0441,-0.0928,9.0623,21.77,-0.16,27.83,
1999-01-15 09:29:36.511500,2.7078,-0.1909,9.2766,4.82,16.9,20.87,
1999-01-15 09:29:36.580500,2.3464,-0.4219,8.7996,0.37,11.57,-1.93,
1999-01-15 09:29:36.649400,2.4391,-0.4949,9.8067,-5.14,7.54,-19.98,
1999-01-15 09:29:36.718400,2.7084,-0.2202,9.2855,-10.67,8.36,-12.91,
1999-01-15 09:29:36.787400,2.1974,-0.5535,9.2981,-9.16,4.82,-10.44,
1999-01-15 09:29:36.856400,2.3033,-0.4871,9.1401,-5.2,3.92,-4.91,
1999-01-15 09:29:36.925400,2.5498,-0.5242,9.5153,-3.21,-2.42,-7.45,
1999-01-15 09:29:36.994400,2.8071,-0.1293,9.0934,-3.12,-9.86,-15.37,
1999-01-15 09:29:37.063400,2.7168,-0.3782,8.6859,-20.36,-12.16,-32.78,
1999-01-15 09:29:37.132400,2.4972,-1.2638,9.4902,-19.78,1.89,-30.97,
1999-01-15 09:29:37.201400,2.8706,-1.5595,9.3388,-33.02,-3.23,-39.93,
1999-01-15 09:29:37.270400,2.9005,-1.5924,9.5141,-19.09,-8.63,-31.15,
1999-01-15 09:29:37.339400,3.25,-1.788,9.352,-27.51,-6.62,-15.78,
1999-01-15 09:29:37.408300,2.6719,-2.35,9.1323,-8.97,-4.9,1.24,
1999-01-15 09:29:37.477300,3.5629,-0.9958,8.6871,21.27,-13.31,4.3,
1999-01-15 09:29:37.546300,4.0835,-1.1023,8.8804,15.72,-8.44,8.44,
1999-01-15 09:29:37.615300,4.4653,-2.0406,8.3023,-11.82,-2.37,12.05,
1999-01-15 09:29:37.684300,3.1644,-2.4367,9.5554,-21.16,13.26,6.79,
1999-01-15 09:29:37.753300,4.2332,-2.3009,8.2467,-32.01,-1.62,-2.64,
1999-01-15 09:29:37.822300,4.8375,-3.831,7.288,-86.14,-24.75,-18.17,
1999-01-15 09:29:37.891300,3.3098,-4.9112,6.8913,-110.79,16.43,-9.37,
1999-01-15 09:29:37.960300,3.6078,-4.0076,7.0331,-46.59,-24.76,-45.35,
1999-01-15 09:29:38.029300,4.0907,-5.4641,5.7597,-77.51,-52.97,-41.4,
1999-01-15 09:29:38.098300,8.0331,-7.0074,6.2306,-95.19,-50.6,-32.11,
1999-01-15 09:29:38.167300,7.1031,-7.0505,-3.9908,-177.82,-68.34,14.61,
1999-01-15 09:29:38.236200,8.3508,-7.1372,4.5024,-122.61,-59.12,11.15,
1999-01-15 09:29:38.305200,6.5179,-6.9793,2.5785,-71.25,-84.8,-29.06,
1999-01-15 09:29:38.374200,7.5902,-6.4742,-0.5212,-48.26,-91.8,16.51,
1999-01-15 09:29:38.443200,5.6502,-7.4502,-0.4686,-29.9,-70.36,-39.73,
1999-01-15 09:29:38.512200,7.3138,-6.0733,-2.1357,-32.07,-77.27,-29.46,
1999-01-15 09:29:38.581200,11.0185,-2.1489,-4.454,-26.92,-77.58,-19.86,
1999-01-15 09:29:38.650200,5.6562,-8.8607,2.6234,42.61,-73.87,46.67,
1999-01-15 09:29:38.719200,5.2068,-6.0374,-2.9962,-28.71,-70.74,24.25,
1999-01-15 09:29:38.788200,7.829,-4.3349,-4.3121,-57.15,-72.13,19.83,
1999-01-15 09:29:38.857200,5.7872,-6.783,-6.3533,-54.85,-36.72,10.51,
1999-01-15 09:29:38.926200,5.4653,-6.2995,-4.7209,-40.16,-63.16,-23.3,
1999-01-15 09:29:38.995200,5.1134,-4.5563,-7.0505,-22.34,-63.66,-42.46,
1999-01-15 09:29:39.064100,6.9242,-5.7956,-6.032,-21.28,-72.85,-28.64,
1999-01-15 09:29:39.133100,3.4271,-5.2133,-9.1712,-33.3,-80.99,-38.61,
1999-01-15 09:29:39.202100,9.6176,-4.0309,-9.3543,-38.01,-102.26,-37.89,
1999-01-15 09:29:39.271100,4.962,-4.4677,-8.5932,-2.13,-58.34,-25.93,
1999-01-15 09:29:39.340100,6.2887,-2.9801,-10.0904,73.12,-28.5,0.06,
1999-01-15 09:29:39.409100,1.0466,-4.3648,-7.5106,27.36,-53.03,-63.66,
1999-01-15 09:29:39.478100,2.6492,-3.1249,-8.3879,18.97,-7.28,-59.38,
1999-01-15 09:29:39.547100,3.8125,-3.764,-7.9828,-34.25,44.14,-48.82,
1999-01-15 09:29:39.616100,4.2858,-2.2369,-8.4633,-5.64,114.42,4.71,
1999-01-15 09:29:39.685100,4.5575,-3.0746,-3.8137,67.26,100.22,103.79,
1999-01-15 09:29:39.754100,4.8471,-6.5083,-9.2317,8.12,-39.07,63.56,
1999-01-15 09:29:39.823100,4.3355,-3.6581,-10.003,63.25,-9.42,31.38,
1999-01-15 09:29:39.892000,3.7646,-4.8806,-6.9338,50.71,-21.85,-75.98,
1999-01-15 09:29:39.961000,4.5072,-4.3307,-8.2443,-88.71,-101.9,-60.03,
1999-01-15 09:29:40.030000,5.0434,-3.3092,-10.4195,-23.58,-32.45,-32.75,
1999-01-15 09:29:40.099000,3.6222,-3.4427,-7.689,-3.45,-3.53,-6.83,
1999-01-15 09:29:40.168000,3.2141,-3.0268,-9.4285,-7.1,-17.86,5.96,
1999-01-15 09:29:40.237000,2.1639,-1.9077,-9.0138,16.57,-8.72,-10.76,
1999-01-15 09:29:40.306000,4.7651,-5.0991,-10.1083,73.26,-20.2,10.9,
1999-01-15 09:29:40.375000,6.3228,-4.3696,-5.874,75.0,20.18,36.57,
1999-01-15 09:29:40.444000,0.4273,-5.1697,-5.202,63.25,83.2,10.89,
1999-01-15 09:29:40.513000,1.8599,-5.0973,-5.6209,84.19,138.31,20.13,
1999-01-15 09:29:40.582000,4.8334,-7.2485,-5.7902,73.65,113.52,64.1,
1999-01-15 09:29:40.650900,3.0531,-6.7758,-2.8454,88.69,106.94,81.39,
1999-01-15 09:29:40.719900,4.5479,-10.9689,-1.8976,140.0,102.43,114.21,
1999-01-15 09:29:40.788900,2.0053,-8.9265,0.3961,131.52,108.36,119.37,
1999-01-15 09:29:40.857900,1.1166,-10.7732,2.0579,90.73,81.83,102.87,
1999-01-15 09:29:40.926900,-0.7743,-9.5566,2.7718,80.92,64.16,77.81,
1999-01-15 09:29:40.995900,-0.6954,-9.0204,3.5498,75.94,43.88,35.89,
1999-01-15 09:29:41.064900,-0.4805,-10.2663,2.7958,57.2,16.87,42.46,
1999-01-15 09:29:41.133900,-1.204,-9.7702,6.5957,83.54,36.57,23.38,
1999-01-15 09:29:41.202900,-0.675,-9.9623,5.506,86.46,18.22,8.61,
1999-01-15 09:29:41.271900,-0.5452,-8.3293,5.6927,69.93,31.69,18.85,
1999-01-15 09:29:41.340900,-3.329,-6.2743,5.9805,66.41,48.9,39.21,
1999-01-15 09:29:41.409900,-0.979,-7.4059,6.8853,51.93,43.0,24.02,
1999-01-15 09:29:41.478800,-3.4995,-6.4892,6.6292,38.24,56.6,51.9,
1999-01-15 09:29:41.547800,-2.9149,-6.4646,5.9835,52.59,48.55,43.6,
1999-01-15 09:29:41.616800,-3.7945,-5.6268,6.5586,30.49,20.72,37.29,
1999-01-15 09:29:41.685800,-3.5737,-4.0261,7.7027,14.58,3.59,33.25,
1999-01-15 09:29:41.754800,-4.4073,-5.0458,7.3126,17.3,-0.28,28.98,
1999-01-15 09:29:41.823800,-4.6449,-5.0183,7.0277,16.29,-1.39,13.26,
1999-01-15 09:29:41.892800,-3.9004,-1.739,6.2953,0.53,-3.38,-16.58,
1999-01-15 09:29:41.961800,-4.7131,-7.6022,8.8517,-15.05,8.64,1.96,
1999-01-15 09:29:42.030800,-5.5233,-4.7298,6.4969,-23.71,37.39,-11.21,
1999-01-15 09:29:42.099800,-5.0368,-3.7921,6.3348,-13.06,18.29,7.96,
1999-01-15 09:29:42.168800,-5.6179,-5.7693,6.6615,-0.63,9.32,7.71,
1999-01-15 09:29:42.237800,-5.4503,-5.1451,7.7751,-9.35,7.49,-0.84,
1999-01-15 09:29:42.306700,-4.9752,-4.6604,6.3252,-23.2,5.11,1.26,
1999-01-15 09:29:42.375700,-4.6125,-5.7507,6.6591,-11.77,-5.15,3.25,
1999-01-15 09:29:42.444700,-4.3367,-4.9429,6.2893,-7.56,12.62,-2.71,
1999-01-15 09:29:42.513700,-5.4928,-4.7729,6.1355,-1.17,7.51,-1.24,
1999-01-15 09:29:42.582700,-5.3582,-5.1254,6.2001,-3.49,3.96,2.7,
1999-01-15 09:29:42.651700,-4.9602,-6.5855,6.6292,-3.19,3.0,13.62,
1999-01-15 09:29:42.720700,-6.0314,-4.305,7.9457,-33.22,34.04,0.65,
1999-01-15 09:29:42.789700,-4.9812,-4.8537,6.0284,-23.06,29.14,14.32,
1999-01-15 09:29:42.858700,-5.6322,-5.3223,4.5282,-23.54,27.87,3.47,
1999-01-15 09:29:42.927700,-4.8812,-5.3474,4.2726,-4.3,-9.68,-5.68,
1999-01-15 09:29:42.996700,-6.4305,-6.1923,6.78,-17.54,-5.4,-24.77,
1999-01-15 09:29:43.065700,-5.4832,-5.6268,6.1995,13.76,-14.49,-20.32,
1999-01-15 09:29:43.134600,-4.9459,-6.7602,6.2055,-3.5,-7.29,-9.56,
1999-01-15 09:29:43.203600,-5.1421,-5.2708,5.9985,-12.69,-4.04,-8.49,
1999-01-15 09:29:43.272600,-5.3833,-6.4485,5.8435,-5.1,2.7,12.09,
1999-01-15 09:29:43.341600,-5.6741,-5.874,6.1331,-9.69,7.66,8.55,
1999-01-15 09:29:43.410600,-5.4575,-6.2001,5.0123,-3.19,16.11,24.85,
1999-01-15 09:29:43.479600,-5.9476,-5.6675,5.3881,-11.93,11.38,25.39,
1999-01-15 09:29:43.548600,-5.9392,-5.8459,5.4222,4.44,3.48,26.36,
1999-01-15 09:29:43.617600,-6.7381,-5.266,6.1672,-11.15,18.27,45.12,
1999-01-15 09:29:43.686600,-7.5394,-7.1552,2.1698,19.85,18.62,31.26,
1999-01-15 09:29:43.755600,-6.0912,-5.4515,4.594,-10.63,4.39,11.57,
1999-01-15 09:29:43.824600,-7.3497,-4.8621,4.5443,-8.09,3.35,-5.25,
1999-01-15 09:29:43.893500,-7.607,-3.0268,4.7771,-13.73,-32.01,-40.11,
1999-01-15 09:29:43.962500,-7.1384,-6.6256,6.5107,-22.53,-15.21,-34.24,
1999-01-15 09:29:44.031500,-6.3348,-5.4437,5.0991,0.88,-16.66,-17.97,
1999-01-15 09:29:44.100500,-5.8949,-5.7334,5.8662,-4.75,-21.46,0.84,
1999-01-15 09:29:44.169500,-6.306,-6.2863,7.3975,-28.97,-2.92,-9.72,
1999-01-15 09:29:44.238500,-4.67,-6.7118,3.4624,-3.08,4.84,10.55,
1999-01-15 09:29:44.307500,-5.7082,-5.4527,5.3647,-14.36,12.5,14.34,
1999-01-15 09:29:44.376500,-6.4138,-5.9685,5.1224,-17.12,5.54,-21.96,
1999-01-15 09:29:44.445500,-5.956,-6.9864,5.5281,-8.97,4.64,-18.65,
1999-01-15 09:29:44.514500,-5.5802,-6.6705,4.5503,-12.56,1.9,-14.53,
1999-01-15 09:29:44.583500,-5.7729,-6.8207,4.5916,-20.48,-0.88,-35.94,
1999-01-15 09:29:44.652500,-5.2169,-7.7039,4.4115,-30.59,-1.52,-81.23,
1999-01-15 09:29:44.721400,-3.9639,-8.0528,4.278,-46.73,-10.85,-63.17,
1999-01-15 09:29:44.790400,-2.9226,-9.4381,3.621,-46.82,-13.89,-67.1,
1999-01-15 09:29:44.859400,-2.9065,-8.4208,2.4625,-45.61,2.24,-104.11,
1999-01-15 09:29:44.928400,-0.7516,-8.577,2.3332,-87.1,-38.19,-63.88,
1999-01-15 09:29:44.997400,-0.5314,-9.5405,1.3416,-60.27,-68.08,-66.93,
1999-01-15 09:29:45.066400,0.2382,-10.091,1.8096,-46.19,-66.74,-51.9,
1999-01-15 09:29:45.135400,0.4291,-9.8361,1.3362,-42.1,-58.0,-38.38,
1999-01-15 09:29:45.204400,2.7928,-9.2754,-0.3417,-77.3,-85.85,-61.13,
1999-01-15 09:29:45.273400,1.9454,-9.7798,-0.4608,-103.0,-95.79,-111.35,
1999-01-15 09:29:45.342400,3.7425,-8.6482,-8.3819,-167.66,-65.88,-170.65,
1999-01-15 09:29:45.411400,3.2326,-8.7793,-4.3846,-118.79,-99.28,-145.88,
1999-01-15 09:29:45.480400,6.3216,-5.7824,-5.3408,-102.55,-66.42,-104.65,
1999-01-15 09:29:45.549300,4.9955,-5.4527,-7.2575,-83.4,-48.63,-60.49,
1999-01-15 09:29:45.618300,4.4049,-3.7347,-7.3694,-68.9,-41.15,-35.53,
1999-01-15 09:29:45.687300,4.059,-2.8742,-7.3329,-61.14,-37.67,-30.58,
1999-01-15 09:29:45.756300,5.184,-3.8011,-8.1485,-66.97,-46.08,-22.01,
1999-01-15 09:29:45.825300,4.0201,-1.9077,-9.0492,-37.14,-13.93,-47.75,
1999-01-15 09:29:45.894300,4.1949,-1.6265,-8.121,-4.05,2.33,-60.04,
1999-01-15 09:29:45.963300,4.8166,0.0862,-10.4895,4.27,39.52,-11.14,
1999-01-15 09:29:46.032300,4.9889,-1.5355,-8.644,0.85,66.69,19.09,
1999-01-15 09:29:46.101300,5.5096,-1.2501,-8.4077,0.74,21.59,5.02,
1999-01-15 09:29:46.170300,4.9231,-1.8269,-8.2485,2.82,5.69,0.04,
1999-01-15 09:29:46.239300,5.4892,-2.5403,-8.5914,6.16,-20.64,-18.42,
1999-01-15 09:29:46.308300,5.2277,-2.3733,-8.7494,23.36,-22.94,5.59,
1999-01-15 09:29:46.377200,4.8705,-1.8234,-9.1832,-17.81,-25.57,3.15,
1999-01-15 09:29:46.446200,4.3199,-2.0071,-9.7918,-4.05,-9.12,-28.55,
1999-01-15 09:29:46.515200,6.6507,-1.423,-11.9155,-16.56,-35.72,-40.4,
1999-01-15 09:29:46.584200,2.6204,-0.8144,-8.7853,-13.64,-80.63,-27.68,
1999-01-15 09:29:46.653200,1.9867,-1.2985,-8.9462,28.0,-127.71,-15.59,
1999-01-15 09:29:46.722200,0.5757,-2.0573,-10.2729,48.29,-87.63,-19.89,
1999-01-15 09:29:46.791200,1.3548,-2.1088,-9.0719,44.44,-24.97,3.24,
1999-01-15 09:29:46.860200,0.4865,-2.5438,-10.4153,16.4,-8.37,8.17,
1999-01-15 09:29:46.929200,-0.1011,-2.4792,-9.319,12.28,-11.22,14.11,
1999-01-15 09:29:46.998200,0.7923,-2.8395,-9.9402,12.01,-17.71,12.86,
1999-01-15 09:29:47.067200,-0.4727,-2.8341,-9.9797,15.79,18.13,2.02,
1999-01-15 09:29:47.136200,0.3543,-2.8359,-9.8319,11.18,-13.83,-12.22,
1999-01-15 09:29:47.205100,0.1568,-2.6426,-8.963,3.69,-9.81,-21.61,
1999-01-15 09:29:47.274100,0.079,-3.1548,-9.6236,-3.39,-17.1,-6.89,
1999-01-15 09:29:47.343100,-0.8856,-2.794,-9.3412,-0.96,-29.07,2.42,
1999-01-15 09:29:47.412100,-2.0926,-3.8346,-9.8953,7.14,-3.7,30.48,
1999-01-15 09:29:47.481100,-1.5487,-3.1626,-10.6224,14.11,2.19,-4.7,
1999-01-15 09:29:47.550100,-1.3739,-3.3313,-9.7307,-0.49,-0.34,0.25,
1999-01-15 09:29:47.619100,-1.1489,-3.8837,-9.2454,8.23,26.32,-5.07,
1999-01-15 09:29:47.688100,-0.1544,-3.2925,-9.4698,10.75,19.32,-7.88,
1999-01-15 09:29:47.757100,-0.3453,-3.4139,-9.1473,-3.95,6.62,-2.15,
1999-01-15 09:29:47.826100,-0.3094,-3.3433,-9.6643,-2.77,6.94,-0.71,
1999-01-15 09:29:47.895100,0.0389,-3.2721,-9.4447,-11.26,18.0,10.27,
1999-01-15 09:29:47.964000,-0.0377,-2.6492,-9.7655,-11.38,-12.5,16.94,
1999-01-15 09:29:48.033000,0.5864,-2.7282,-9.7822,-11.64,-12.47,90.48,
1999-01-15 09:29:48.102000,-3.1829,-1.8551,-9.8085,-4.02,-12.47,57.16,
1999-01-15 09:29:48.171000,-1.5451,-2.7341,-9.4716,9.25,19.16,10.67,
1999-01-15 09:29:48.240000,-0.2017,-3.1835,-10.1819,19.15,24.18,3.12,
1999-01-15 09:29:48.309000,-0.9934,-3.3708,-9.5416,18.86,15.88,-1.07,
1999-01-15 09:29:48.378000,-2.0131,-3.4367,-9.5746,12.32,17.2,-37.47,
1999-01-15 09:29:48.447000,-0.3345,-3.6491,-9.7888,20.81,23.25,-38.68,
1999-01-15 09:29:48.516000,0.3441,-4.1572,-8.8068,14.6,14.28,-16.68,
1999-01-15 09:29:48.585000,0.1658,-3.9094,-9.2939,7.38,22.08,-7.17,
1999-01-15 09:29:48.654000,0.4321,-3.9513,-9.4704,15.21,46.17,-15.21,
1999-01-15 09:29:48.723000,1.715,-4.0955,-8.9456,3.01,43.41,-4.85,
1999-01-15 09:29:48.791900,2.6366,-4.3498,-9.5016,-3.65,39.26,-8.93,
1999-01-15 09:29:48.860900,2.2375,-3.7879,-9.1485,7.58,16.0,5.18,
1999-01-15 09:29:48.929900,1.8982,-4.3056,-8.501,17.33,-15.17,4.41,
1999-01-15 09:29:48.998900,1.4446,-3.9812,-8.9702,-5.01,-34.19,-2.15,
1999-01-15 09:29:49.067900,1.0664,-3.846,-9.0252,-7.63,-28.95,1.22,
1999-01-15 09:29:49.136900,1.0646,-3.679,-9.1712,-8.08,-16.5,6.67,
1999-01-15 09:29:49.205900,0.6768,-3.6742,-9.4752,-0.48,-4.6,-2.5,
1999-01-15 09:29:49.274900,0.8102,-3.4989,-8.8056,-8.61,-0.07,-4.8,
1999-01-15 09:29:49.343900,1.189,-3.8807,-9.2478,1.65,6.91,-2.1,
1999-01-15 09:29:49.412900,1.1932,-4.0698,-9.3113,-5.84,4.52,3.79,
1999-01-15 09:29:49.481900,0.9604,-3.6413,-8.9684,-15.5,-3.38,2.52,
1999-01-15 09:29:49.550900,0.9239,-3.302,-9.2748,-6.76,-2.8,0.7,
1999-01-15 09:29:49.619800,0.97,-3.9657,-9.1754,2.61,0.98,-1.16,
1999-01-15 09:29:49.688800,0.6565,-3.5414,-9.8929,5.67,17.89,-1.01,
1999-01-15 09:29:49.757800,1.1059,-3.6126,-9.3143,8.72,9.69,4.25,
1999-01-15 09:29:49.826800,0.9455,-4.0632,-9.6314,22.05,16.84,-16.54,
1999-01-15 09:29:49.895800,2.4547,-3.1321,-9.039,-0.37,-7.76,-4.5,
1999-01-15 09:29:49.964800,1.1442,-3.2057,-9.0749,-16.76,-20.98,17.75,
1999-01-15 09:29:50.033800,0.6343,-3.9244,-9.7176,-17.78,-45.12,55.61,
1999-01-15 09:29:50.102800,0.1496,-3.2165,-10.249,-1.51,2.08,24.38,
1999-01-15 09:29:50.171800,0.1574,-2.8281,-9.7702,-20.09,3.74,18.38,
1999-01-15 09:29:50.240800,-1.0245,-3.5725,-10.3124,-46.89,-9.7,-4.86,
1999-01-15 09:29:50.309800,0.1879,-2.4894,-9.6559,-13.51,7.4,-16.62,
1999-01-15 09:29:50.378800,-0.2453,-2.773,-9.2041,-8.73,6.53,-20.06,
1999-01-15 09:29:50.447700,0.0168,-3.3924,-9.7439,23.61,38.04,-21.97,
1999-01-15 09:29:50.516700,0.6523,-3.2159,-9.4471,0.28,16.98,-12.31,
1999-01-15 09:29:50.585700,0.5637,-2.8718,-8.6386,-0.64,-8.29,-3.82,
1999-01-15 09:29:50.654700,0.0838,-1.1675,-10.7959,28.59,-6.54,-19.4,
1999-01-15 09:29:50.723700,0.2627,-4.0297,-8.9833,37.54,22.36,-7.57,
1999-01-15 09:29:50.792700,0.6618,-5.0422,-9.121,25.82,21.55,-19.6,
1999-01-15 09:29:50.861700,1.599,-3.989,-8.8882,8.66,32.8,-6.65,
1999-01-15 09:29:50.930700,0.4979,-3.6551,-9.4142,0.11,32.41,-4.69,
1999-01-15 09:29:50.999700,1.9329,-3.9094,-8.7703,12.46,35.03,-5.04,
1999-01-15 09:29:51.068700,2.4487,-4.144,-9.4722,10.73,7.24,5.98,
1999-01-15 09:29:51.137700,1.3183,-3.9304,-9.48,7.26,-1.97,21.41,
1999-01-15 09:29:51.206600,1.3967,-3.8861,-8.6997,-2.33,1.28,13.35,
1999-01-15 09:29:51.275600,1.5421,-4.4324,-9.2861,-8.04,-1.58,13.19,
1999-01-15 09:29:51.344600,1.1795,-4.22,-9.0025,-3.96,1.62,3.29,
1999-01-15 09:29:51.413600,1.6881,-3.7239,-8.9839,-8.26,9.42,-3.47,
1999-01-15 09:29:51.482600,1.8515,-4.0046,-8.8607,-2.72,1.29,0.11,
1999-01-15 09:29:51.551600,1.7492,-3.9447,-9.0294,-11.48,1.79,8.45,
1999-01-15 09:29:51.620600,1.3279,-3.8011,-8.3843,-4.94,-4.13,7.12,
1999-01-15 09:29:51.689600,1.2728,-3.9345,-9.2538,-3.46,-0.69,0.8,
1999-01-15 09:29:51.758600,1.4793,-4.0046,-9.2209,-3.06,-3.09,4.48,
1999-01-15 09:29:51.827600,0.9676,-3.779,-9.41,-6.99,-4.68,0.47,
1999-01-15 09:29:51.896600,1.0729,-3.6018,-9.0521,-1.5,3.64,-3.89,
1999-01-15 09:29:51.965600,1.0981,-3.4989,-9.1443,-4.68,6.68,-4.8,
1999-01-15 09:29:52.034500,1.6097,-3.5073,-9.3831,-13.63,-2.91,-0.13,
1999-01-15 09:29:52.103500,1.7121,-3.6156,-9.4525,-25.19,-19.51,10.12,
1999-01-15 09:29:52.172500,0.8007,-3.3313,-9.3107,-39.58,-45.56,1.46,
1999-01-15 09:29:52.241500,1.0747,-3.4875,-8.3484,-24.45,7.46,21.67,
1999-01-15 09:29:52.310500,0.4063,-2.9717,-9.781,-9.35,-8.84,9.07,
1999-01-15 09:29:52.379500,-0.6211,-2.1321,-9.3675,12.06,-17.13,-3.2,
1999-01-15 09:29:52.448500,-0.3842,-3.1339,-9.4226,16.23,10.24,4.48,
1999-01-15 09:29:52.517500,0.082,-2.864,-9.6727,3.47,2.61,0.17,
1999-01-15 09:29:52.586500,-0.4309,-3.1255,-9.6368,8.0,-3.54,-7.86,
1999-01-15 09:29:52.655500,0.304,-3.6916,-9.866,12.22,-0.57,-3.22,
1999-01-15 09:29:52.724500,0.0652,-3.3906,-9.2233,16.65,4.06,-0.94,
1999-01-15 09:29:52.793500,0.4171,-4.1631,-8.8236,4.97,6.25,-1.22,
1999-01-15 09:29:52.862400,0.0718,-3.5952,-9.3561,-8.52,-4.24,5.24,
1999-01-15 09:29:52.931400,0.0126,-3.3415,-9.2658,-11.27,2.33,5.73,
1999-01-15 09:29:53.000400,-0.4446,-3.5055,-9.9139,-7.14,-4.24,12.74,
1999-01-15 09:29:53.069400,-0.0168,-4.4611,-9.7756,12.84,11.82,-5.01,
1999-01-15 09:29:53.138400,-1.2926,-4.2062,-9.7391,-4.53,17.86,-5.96,
1999-01-15 09:29:53.207400,0.0365,-3.6126,-9.4585,4.23,10.85,-0.88,
1999-01-15 09:29:53.276400,0.1005,-4.0955,-8.741,3.23,22.5,-4.81,
1999-01-15 09:29:53.345400,-0.4362,-3.755,-9.3639,-13.5,-0.76,7.4,
1999-01-15 09:29:53.415400,-0.3734,-3.1129,-9.5692,-8.34,-17.72,23.35,
1999-01-15 09:29:53.484600,-0.6876,-3.5839,-9.7248,-5.55,-5.18,22.9,
1999-01-15 09:29:53.553800,-0.5763,-3.6545,-9.8002,-2.28,-2.13,11.02,
1999-01-15 09:29:53.623000,-1.0119,-3.4205,-9.8684,-7.84,1.65,14.63,
1999-01-15 09:29:53.692200,-0.7414,-3.0866,-8.8631,-7.01,-5.33,21.41,
1999-01-15 09:29:53.761400,-0.8114,-3.0525,-9.936,-2.17,-30.07,17.9,
1999-01-15 09:29:53.830600,-2.0089,-3.1183,-9.6972,-8.52,-19.42,18.87,
1999-01-15 09:29:53.899800,-2.3464,-2.6043,-8.9726,26.14,-91.99,37.85,
1999-01-15 09:29:53.969100,-3.2565,-3.4768,-8.6686,20.48,-35.72,15.74,
1999-01-15 09:29:54.038300,-2.9364,-3.8681,-9.3705,16.99,-7.32,0.02,
1999-01-15 09:29:54.107500,-3.5863,-3.8214,-8.7476,11.35,-5.34,-7.79,
1999-01-15 09:29:54.176700,-3.2033,-3.6138,-8.519,4.59,-7.24,-0.32,
1999-01-15 09:29:54.245900,-3.247,-3.6706,-9.1443,-10.9,-11.03,-5.47,
1999-01-15 09:29:54.315100,-2.8718,-2.4762,-8.2006,-25.36,-28.75,-3.69,
1999-01-15 09:29:54.384300,-4.2361,-3.8113,-9.2598,-17.68,-16.26,-23.13,
1999-01-15 09:29:54.453500,-2.9322,-3.4026,-8.3765,-24.54,-20.73,-10.46,
1999-01-15 09:29:54.522700,-3.32,-3.0824,-9.5752,-8.05,3.25,-15.85,
1999-01-15 09:29:54.591900,-4.0752,-2.9107,-7.3096,10.77,18.24,-21.21,
1999-01-15 09:29:54.661200,-3.0764,-3.5569,-8.7673,38.84,100.57,-33.88,
1999-01-15 09:29:54.730400,-1.6259,-3.6138,-8.0815,22.24,97.95,-13.26,
1999-01-15 09:29:54.799600,-0.7977,-3.3732,-9.4585,-2.34,56.69,1.79,
1999-01-15 09:29:54.868800,-0.9808,-3.7167,-9.2502,-12.62,26.41,7.81,
1999-01-15 09:29:54.938000,-0.8073,-3.5013,-8.8451,4.42,13.49,27.21,
1999-01-15 09:29:55.007200,-1.0251,-4.0656,-9.9324,45.26,-32.66,55.42,
1999-01-15 09:29:55.076400,-1.7641,-3.8454,-10.091,67.1,-66.87,-1.43,
1999-01-15 09:29:55.145600,-2.1226,-3.2643,-7.9942,17.98,18.8,-1.58,
1999-01-15 09:29:55.214800,-1.3686,-5.5317,-11.2866,-11.3,74.3,-6.61,
1999-01-15 09:29:55.284000,-0.8964,-4.8136,-8.8487,-15.36,10.24,-19.92,
1999-01-15 09:29:55.353300,-0.8767,-4.366,-8.7583,-0.05,9.71,-10.89,
1999-01-15 09:29:55.422500,-0.8761,-4.2798,-9.2909,1.26,7.49,-8.04,
1999-01-15 09:29:55.491700,-0.6391,-4.7041,-9.3849,1.37,6.83,-2.58,
1999-01-15 09:29:55.560900,-0.6223,-4.4635,-8.9989,-10.44,-4.04,-0.32,
1999-01-15 09:29:55.630100,-0.6517,-4.3935,-9.4435,-17.95,-0.04,12.93,
1999-01-15 09:29:55.699300,-0.7959,-3.8579,-9.9192,-43.02,-9.32,-33.39,
1999-01-15 09:29:55.768500,-0.7708,-4.0824,-9.3484,-1.08,1.92,-3.67,
1999-01-15 09:29:55.837700,-0.7803,-3.6467,-8.6201,1.16,4.23,4.07,
1999-01-15 09:29:55.906900,-0.6678,-3.1488,-9.4585,-6.83,6.74,3.32,
1999-01-15 09:29:55.976100,-0.6116,-3.6234,-9.425,-15.75,0.83,4.98,
1999-01-15 09:29:56.045400,-0.9102,-3.1081,-10.0473,-24.72,0.62,9.09,
1999-01-15 09:29:56.114600,-0.7444,-2.6234,-10.2675,-30.66,-14.55,9.12,
1999-01-15 09:29:56.183800,-0.754,-2.794,-10.3321,-38.14,-28.41,10.96,
1999-01-15 09:29:56.253000,-0.8456,-2.499,-8.6799,15.37,-12.73,22.6,
1999-01-15 09:29:56.322200,-1.0873,-2.3003,-9.8803,-35.55,-42.01,-16.29,
1999-01-15 09:29:56.391400,-1.3608,-2.1321,-10.1239,-6.85,5.78,8.02,
1999-01-15 09:29:56.460600,-1.5984,-2.2375,-9.5028,-1.72,-7.64,-16.91,
1999-01-15 09:29:56.529800,-1.7731,-2.5091,-9.0533,0.1,-0.11,-15.01,
1999-01-15 09:29:56.599000,-1.5343,-2.4966,-10.1275,0.1,32.01,-21.77,
1999-01-15 09:29:56.668200,-1.514,-2.4918,-9.8702,1.57,18.24,-10.3,
1999-01-15 09:29:56.737500,-1.4434,-2.3117,-10.1269,12.52,22.16,11.54,
1999-01-15 09:29:56.806700,-1.1735,-1.8222,-10.8887,-7.78,3.26,8.12,
1999-01-15 09:29:56.875900,-1.0933,-2.6402,-9.5189,8.28,-1.09,15.94,
1999-01-15 09:29:56.945100,-1.0622,-2.7479,-9.2616,-0.51,-3.0,14.54,
1999-01-15 09:29:57.014300,-0.386,-1.6827,-10.456,18.47,26.28,13.82,
1999-01-15 09:29:57.083500,-0.4488,-2.332,-9.0384,33.9,12.3,23.11,
1999-01-15 09:29:57.152700,-0.5308,-3.1428,-8.6991,32.64,11.75,1.16,
1999-01-15 09:29:57.221900,0.2136,-3.9776,-9.6757,29.42,26.92,-16.04,
1999-01-15 09:29:57.291100,-0.0215,-4.3469,-10.9635,-44.49,-2.8,-51.27,
1999-01-15 09:29:57.360300,0.465,-3.7155,-8.0378,-43.86,47.34,-36.67,
1999-01-15 09:29:57.429600,0.3423,-3.609,-8.9396,-6.12,19.32,-17.89,
1999-01-15 09:29:57.498800,0.2615,-3.3732,-10.678,-1.8,-14.96,-14.15,
1999-01-15 09:29:57.568000,-0.4225,-2.937,-9.3304,-10.37,-28.58,-15.04,
1999-01-15 09:29:57.637200,-0.6702,-2.7653,-9.2556,-1.62,-17.38,-24.7,
1999-01-15 09:29:57.706400,-1.0622,-3.0752,-9.6799,-9.88,-5.57,-23.53,
1999-01-15 09:29:57.775600,-0.7175,-3.0148,-9.6793,-10.9,11.1,-30.06,
1999-01-15 09:29:57.844800,-1.1089,-3.1512,-9.2359,-6.04,28.52,-42.33,
1999-01-15 09:29:57.914000,-0.0622,-3.1381,-9.1952,3.83,42.0,-67.52,
1999-01-15 09:29:57.983200,1.1322,-3.2284,-9.3944,0.69,20.85,-68.14,
1999-01-15 09:29:58.052400,0.8228,-3.0764,-9.7343,-5.88,17.6,-68.03,
1999-01-15 09:29:58.121600,1.1884,-3.0226,-9.1533,-6.27,14.81,-71.62,
1999-01-15 09:29:58.190900,1.6408,-2.493,-9.3454,-12.06,25.43,-82.65,
1999-01-15 09:29:58.260100,3.1979,-1.0388,-9.8265,-18.64,4.16,-78.25,
1999-01-15 09:29:58.329300,3.4492,-0.2238,-11.295,-13.53,-3.37,-60.39,
1999-01-15 09:29:58.398500,2.5654,0.4153,-10.0688,7.39,-11.56,-40.97,
1999-01-15 09:29:58.467700,3.1201,0.6469,-10.1502,3.92,-11.24,-34.16,
1999-01-15 09:29:58.536900,1.4655,-0.8264,-9.3196,5.83,-15.09,-19.43,
1999-01-15 09:29:58.606100,1.1466,-1.1238,-9.0198,8.79,-10.01,-23.56,
1999-01-15 09:29:58.675300,1.876,-0.7576,-8.9283,0.04,-2.98,-29.65,
1999-01-15 09:29:58.744500,1.8952,-0.8725,-9.3328,-1.76,2.44,-30.56,
1999-01-15 09:29:58.813700,1.4888,-1.2914,-9.9546,-3.24,5.75,-32.81,
1999-01-15 09:29:58.883000,2.1154,-1.496,-9.1778,3.96,6.63,-34.64,
1999-01-15 09:29:58.952200,2.9334,-1.7569,-9.9958,4.16,10.29,-25.55,
1999-01-15 09:29:59.021400,2.6683,-1.5756,-9.8032,-3.52,17.86,-19.45,
1999-01-15 09:29:59.090600,4.2487,-0.1484,-13.6396,-22.27,11.72,-24.0,
1999-01-15 09:29:59.159800,2.4254,0.6457,-11.6744,29.37,1.02,11.53,
1999-01-15 09:29:59.229000,1.5672,0.7486,-10.976,36.77,-4.1,-4.61,
1999-01-15 09:29:59.298200,1.2345,1.1136,-7.7464,48.41,-9.31,-13.54,
1999-01-15 09:29:59.367400,2.2219,1.1023,-8.1994,23.58,-8.23,-33.21,
1999-01-15 09:29:59.436600,1.6067,-0.003,-8.2168,7.04,-7.07,-43.4,
1999-01-15 09:29:59.505800,2.5648,-0.6134,-8.9163,-12.95,-8.31,-53.09,
1999-01-15 09:29:59.575100,3.156,-1.1789,-10.2933,-10.77,-4.34,-46.4,
1999-01-15 09:29:59.644300,2.8197,-1.3303,-11.4793,-1.86,-11.71,-36.81,
1999-01-15 09:29:59.713500,0.4757,-1.3823,-9.6476,21.06,-12.24,-40.29,
1999-01-15 09:29:59.782700,1.5427,-1.2226,-8.6943,28.38,-9.81,-61.38,
1999-01-15 09:29:59.851900,2.1477,-1.517,-9.3274,1.93,-6.62,-76.39,
1999-01-15 09:29:59.921100,4.0339,-1.5978,-9.6452,-20.22,12.83,-82.57,
1999-01-15 09:29:59.990300,4.3193,-1.3087,-10.9563,-32.67,-15.61,-22.11,
1999-01-15 09:30:00.059500,0.8904,-0.6074,-11.4171,-10.52,-15.26,-2.32,
1999-01-15 09:30:00.128700,0.6606,0.6074,-11.9712,-4.21,-26.44,10.63,
1999-01-15 09:30:00.197900,0.1514,1.5589,-11.2489,15.24,-10.52,-6.18,
1999-01-15 09:30:00.267200,1.1896,0.8593,-7.5932,35.31,-1.95,3.27,
1999-01-15 09:30:00.336400,-0.4141,-0.6409,-6.2432,16.7,2.42,0.38,
1999-01-15 09:30:00.405600,1.6977,-0.4105,-8.82,-18.14,5.37,-10.73,
1999-01-15 09:30:00.474800,0.7337,0.2328,-8.0504,-13.77,3.63,3.88,
1999-01-15 09:30:00.544000,-0.7923,-0.2202,-8.7787,-19.55,-0.74,-3.71,
1999-01-15 09:30:00.613200,-0.7468,-0.4787,-9.9055,-19.85,-10.86,-14.69,
1999-01-15 09:30:00.682400,-1.2232,-0.2645,-7.2204,4.1,-1.3,-25.94,
1999-01-15 09:30:00.751600,-0.2962,-0.0856,-10.6798,-6.4,-0.79,-57.52,
1999-01-15 09:30:00.820800,2.1878,-0.7725,-13.2979,-5.54,-40.52,-51.02,
1999-01-15 09:30:00.890000,1.1675,-2.2171,-10.2903,9.09,19.78,-67.47,
1999-01-15 09:30:00.959300,3.4289,-1.2788,-9.8732,27.87,18.69,-45.62,
1999-01-15 09:30:01.028500,0.0287,-0.4171,-15.5527,9.62,-6.01,-32.72,
1999-01-15 09:30:01.097700,-0.0215,1.3482,-12.6151,1.87,10.21,-38.74,
1999-01-15 09:30:01.166900,2.1184,0.1981,-9.1347,10.94,16.5,-22.99,
1999-01-15 09:30:01.236100,0.7875,-0.5942,-7.6543,1.77,-4.5,-0.07,
1999-01-15 09:30:01.305300,0.964,-1.0155,-7.458,-7.39,-15.91,16.97,
1999-01-15 09:30:01.374500,1.8042,-1.3757,-10.6643,-13.97,-14.02,16.85,
1999-01-15 09:30:01.443700,0.8659,-1.5505,-10.9647,-2.98,-12.16,20.42,
1999-01-15 09:30:01.512900,0.4303,-0.8001,-10.1658,4.25,-5.33,12.87,
1999-01-15 09:30:01.582100,-0.0335,0.0233,-11.1879,-7.79,-0.69,0.87,
1999-01-15 09:30:01.651400,2.4283,0.2226,-12.8353,0.73,22.95,-15.97,
1999-01-15 09:30:01.720600,-1.6863,0.4404,-10.3519,6.55,-4.24,28.27,
1999-01-15 09:30:01.789800,-1.7587,0.2106,-8.9223,13.88,0.58,6.34,
1999-01-15 09:30:01.859000,-0.4949,0.374,-8.0462,5.73,-3.88,-1.93,
1999-01-15 09:30:01.928200,0.4841,0.2178,-9.258,-0.8,3.61,-14.52,
1999-01-15 09:30:01.997400,0.9993,-0.0012,-9.6242,-13.8,-1.13,-7.32,
1999-01-15 09:30:02.066600,1.1346,-0.3578,-9.8564,-12.1,0.99,3.38,
1999-01-15 09:30:02.135800,-0.0054,-0.7271,-10.0994,-2.84,2.71,13.4,
1999-01-15 09:30:02.205000,-0.2615,-0.7492,-10.6804,4.94,11.5,0.64,
1999-01-15 09:30:02.274200,0.0676,-0.4907,-8.3353,5.5,23.92,-11.32,
1999-01-15 09:30:02.343500,1.6558,0.0239,-11.3704,-13.5,10.12,-9.62,
1999-01-15 09:30:02.412700,0.8264,0.8749,-12.3925,14.12,12.42,-2.5,
1999-01-15 09:30:02.481900,1.1059,1.5511,-12.3201,1.87,5.72,-9.89,
1999-01-15 09:30:02.551100,-0.1472,1.3452,-8.9373,15.33,-0.01,-7.19,
1999-01-15 09:30:02.620300,-0.1508,0.5625,-7.4149,4.65,-5.53,-18.67,
1999-01-15 09:30:02.689500,-0.1574,0.2633,-9.0797,-6.17,-11.93,-33.73,
1999-01-15 09:30:02.758700,-0.0191,0.465,-10.0425,-11.52,-19.86,-49.83,
1999-01-15 09:30:02.827900,0.2442,0.7456,-9.6416,-9.35,-21.31,-63.21,
1999-01-15 09:30:02.897100,0.681,0.541,-9.3047,-13.55,-25.44,-76.59,
1999-01-15 09:30:02.966300,1.0388,0.4003,-9.5518,-13.87,-32.93,-80.21,
1999-01-15 09:30:03.035600,1.2902,-0.3932,-8.1306,-0.99,-29.39,-85.33,
1999-01-15 09:30:03.104800,3.8137,-0.8031,-6.2414,13.97,-12.72,-87.88,
1999-01-15 09:30:03.174000,0.146,1.4308,-11.3393,-3.48,51.07,-83.36,
1999-01-15 09:30:03.243200,5.9476,1.672,-14.168,-29.86,108.26,-98.39,
1999-01-15 09:30:03.312400,-3.4708,-2.0035,-19.6063,-45.3,37.08,-8.83,
1999-01-15 09:30:03.381600,-3.1794,-1.593,-10.7355,11.43,-7.25,28.64,
1999-01-15 09:30:03.450800,-2.852,-1.5828,-7.388,20.88,-23.22,6.57,
1999-01-15 09:30:03.520000,0.1699,-0.0275,-7.1001,28.45,-21.69,-3.61,
1999-01-15 09:30:03.589200,0.3555,0.1281,-10.2801,-0.04,-29.9,-12.14,
1999-01-15 09:30:03.658400,1.143,-0.5553,-9.5153,19.42,-1.48,-4.41,
1999-01-15 09:30:03.727700,0.8521,-1.0119,-8.7769,11.6,7.91,-3.32,
1999-01-15 09:30:03.796900,0.8856,-0.1448,-11.9102,-16.98,9.3,-5.81,
1999-01-15 09:30:03.866100,1.5206,0.836,-12.7108,21.02,26.75,17.35,
1999-01-15 09:30:03.935300,-1.7916,1.5571,-12.0197,10.94,4.03,27.19,
1999-01-15 09:30:04.004500,-2.2865,0.7313,-9.3747,26.16,-7.18,33.01,
1999-01-15 09:30:04.073700,-3.3134,-0.7241,-8.7278,19.96,-5.33,-2.43,
1999-01-15 09:30:04.142900,-2.5355,0.058,-8.7727,9.54,-15.16,-32.85,
1999-01-15 09:30:04.212100,-0.7995,1.3207,-10.459,1.2,-15.86,-71.53,
1999-01-15 09:30:04.281300,0.3578,1.9388,-8.8271,-5.61,-19.96,-84.11,
1999-01-15 09:30:04.350500,-0.9162,0.9598,-10.3998,-12.05,-36.0,-84.7,
1999-01-15 09:30:04.419700,-0.9371,0.6971,-11.0299,-22.6,-38.04,-112.58,
1999-01-15 09:30:04.489000,0.0347,0.2741,-10.8659,-17.83,-24.96,-130.17,
1999-01-15 09:30:04.558200,0.8755,-0.3537,-9.3705,-17.26,-11.97,-128.85,
1999-01-15 09:30:04.627400,0.8114,-1.4583,-10.3315,-27.86,-1.98,-102.27,
1999-01-15 09:30:04.696600,-0.4865,-2.8239,-9.3101,-17.47,4.92,-57.46,
1999-01-15 09:30:04.765800,-2.0502,-3.618,-9.5033,-13.2,8.45,-39.09,
1999-01-15 09:30:04.835000,-1.0113,-3.0854,-10.2861,-5.25,9.33,-28.45,
1999-01-15 09:30:04.904200,-0.2657,-2.1303,-11.584,0.67,3.88,-6.06,
1999-01-15 09:30:04.973400,-1.1472,-1.0586,-10.4303,14.8,-0.31,19.01,
1999-01-15 09:30:05.042600,-1.3249,-0.5158,-8.6973,23.88,0.44,29.3,
1999-01-15 09:30:05.111800,-1.2447,-0.5463,-8.4825,4.32,3.8,27.21,
1999-01-15 09:30:05.181100,-0.8874,-0.8288,-10.6337,-2.59,5.13,26.78,
1999-01-15 09:30:05.250300,-1.1418,-0.9353,-9.9946,-2.67,8.07,24.87,
1999-01-15 09:30:05.319500,-0.7414,-0.8809,-10.1245,-0.58,12.39,21.17,
1999-01-15 09:30:05.388700,-1.0251,-0.8108,-9.0605,-0.09,17.15,20.04,
1999-01-15 09:30:05.457900,-0.4596,-1.0143,-9.4202,-6.83,20.15,16.21,
1999-01-15 09:30:05.527100,-0.2753,-1.0873,-12.356,-18.78,7.93,25.35,
1999-01-15 09:30:05.596300,-1.8329,-0.3219,-10.9988,17.44,6.71,25.47,
1999-01-15 09:30:05.665500,-0.891,-0.5679,-8.4615,6.76,2.47,14.57,
1999-01-15 09:30:05.734700,-0.152,-1.286,-8.8792,-13.37,-10.55,14.55,
1999-01-15 09:30:05.803900,-0.0485,-1.6193,-12.2572,-17.29,-14.55,17.19,
1999-01-15 09:30:05.873200,0.2968,-1.0771,-9.1946,3.9,0.01,20.45,
1999-01-15 09:30:05.942400,-1.0275,-0.8701,-9.8199,1.08,-8.9,21.43,
1999-01-15 09:30:06.011600,-1.0341,-0.5069,-9.7888,0.71,-5.27,4.12,
1999-01-15 09:30:06.080800,-1.1561,-0.0778,-9.468,-1.03,-3.23,-9.41,
1999-01-15 09:30:06.150000,-0.9239,0.0389,-9.3687,-5.53,-2.1,-27.81,
1999-01-15 09:30:06.219200,-1.5613,0.1281,-9.2766,-27.94,5.8,-46.03,
1999-01-15 09:30:06.288400,1.4517,-0.2723,-13.3565,-37.93,29.82,-53.8,
1999-01-15 09:30:06.357600,-1.0275,-0.0916,-10.5733,-12.78,9.32,2.56,
1999-01-15 09:30:06.426800,-3.4456,-0.1987,-9.2281,-1.92,-1.0,12.03,
1999-01-15 09:30:06.496000,-1.7228,0.4739,-9.933,2.13,0.79,7.2,
1999-01-15 09:30:06.565300,-2.8742,0.7468,-11.0604,4.66,4.04,-3.19,
1999-01-15 09:30:06.634500,-2.2554,0.8677,-9.4501,16.95,15.67,-10.89,
1999-01-15 09:30:06.703700,-0.6565,0.8677,-9.3232,11.16,17.39,-22.22,
1999-01-15 09:30:06.772900,-0.4434,0.2316,-9.1258,14.74,23.07,-31.92,
1999-01-15 09:30:06.842100,-1.1286,-0.678,-9.0306,12.58,39.58,-64.62,
1999-01-15 09:30:06.911300,-1.2226,-1.049,-9.0875,-3.72,56.75,-90.25,
1999-01-15 09:30:06.980500,1.6444,-0.8192,-9.8229,-23.75,16.54,-91.94,
1999-01-15 09:30:07.049700,0.827,-1.1328,-11.0437,-10.7,34.32,-49.62,
1999-01-15 09:30:07.118900,0.6983,-0.4327,-10.3591,-8.37,14.18,-42.21,
1999-01-15 09:30:07.188100,1.7515,0.8922,-10.4596,-5.98,11.28,-35.81,
1999-01-15 09:30:07.257400,0.5146,0.9138,-10.6469,-11.8,7.09,-27.64,
1999-01-15 09:30:07.326600,0.6217,1.2567,-9.4202,-11.89,0.6,-12.18,
1999-01-15 09:30:07.395800,0.6146,1.4182,-9.9127,-2.27,0.25,-12.42,
1999-01-15 09:30:07.465000,0.3333,1.1394,-10.5823,9.77,2.56,-21.72,
1999-01-15 09:30:07.534200,0.0437,1.6193,-10.4865,14.52,3.44,-36.55,
1999-01-15 09:30:07.603400,1.1543,1.8431,-8.2449,35.97,-3.83,-52.98,
1999-01-15 09:30:07.672600,1.7707,1.6486,-8.7877,13.06,-34.88,-58.27,
1999-01-15 09:30:07.741800,1.3063,1.1489,-10.1024,-1.77,-38.78,-54.26,
1999-01-15 09:30:07.811000,2.0136,0.8515,-9.7128,3.41,-29.39,-33.92,
1999-01-15 09:30:07.880200,0.8282,0.0,-10.331,-4.48,-21.94,-18.63,
1999-01-15 09:30:07.949500,-0.2824,-0.0413,-9.7385,-15.24,-4.4,-27.18,
1999-01-15 09:30:08.018700,-0.824,0.7025,-10.5081,-19.43,-9.13,-50.53,
1999-01-15 09:30:08.087900,-0.8892,2.1381,-8.8014,-41.76,-9.32,-54.39,
1999-01-15 09:30:08.157100,-0.9946,2.3972,-10.1484,-89.5,-34.91,-41.59,
1999-01-15 09:30:08.226300,-1.5451,2.5157,-10.6673,-42.53,0.74,-23.92,
1999-01-15 09:30:08.295500,-2.174,2.2656,-10.9683,-27.54,5.5,-3.09,
1999-01-15 09:30:08.364700,-2.8508,2.7395,-9.7427,-0.8,7.25,14.0,
1999-01-15 09:30:08.433900,-2.1644,3.0465,-9.5746,13.82,6.32,19.06,
1999-01-15 09:30:08.503100,-3.5228,1.5283,-9.3783,30.46,12.44,23.43,
1999-01-15 09:30:08.572300,-0.5338,2.3404,-9.3908,32.11,33.01,45.6,
1999-01-15 09:30:08.641600,-3.7478,0.5362,-10.009,9.58,16.8,31.5,
1999-01-15 09:30:08.710800,-0.9999,2.9992,-8.9947,9.08,16.85,-0.85,
1999-01-15 09:30:08.780000,-0.7989,4.077,-9.1096,-3.71,-6.42,-5.36,
1999-01-15 09:30:08.849200,-0.4781,4.272,-9.8319,-11.65,-10.69,4.83,
1999-01-15 09:30:08.918400,-1.4206,3.013,-10.0515,-5.85,-10.49,12.4,
1999-01-15 09:30:08.987600,-1.6157,2.4391,-9.4232,-11.87,-10.56,9.64,
1999-01-15 09:30:09.056800,-1.1005,2.3589,-9.553,-3.84,-1.38,4.89,
1999-01-15 09:30:09.126000,-0.4141,2.3123,-9.7798,-10.4,-7.79,3.55,
1999-01-15 09:30:09.195200,-0.1251,2.1429,-10.5655,-5.4,-2.32,4.8,
1999-01-15 09:30:09.264400,0.0245,2.253,-9.9025,3.66,0.46,5.78,
1999-01-15 09:30:09.333700,0.0592,2.1513,-10.386,6.7,-3.42,9.1,
1999-01-15 09:30:09.402900,0.1987,2.5648,-10.3351,9.22,5.85,5.9,
1999-01-15 09:30:09.472100,0.5033,2.8065,-8.823,9.96,5.15,17.83,
1999-01-15 09:30:09.541300,-0.0299,2.396,-9.1287,4.04,-3.1,31.47,
1999-01-15 09:30:09.610500,-0.8791,2.0741,-10.0623,3.47,-13.13,32.7,
1999-01-15 09:30:09.679700,-1.5583,1.4876,-9.9958,-4.0,-14.39,17.89,
1999-01-15 09:30:09.748900,-0.2573,2.9047,-9.6536,4.08,-8.46,12.78,
1999-01-15 09:30:09.818100,-0.1269,2.5564,-9.5405,8.83,-3.64,17.38,
1999-01-15 09:30:09.887300,-1.1483,2.1836,-9.7966,6.78,-8.91,22.92,
1999-01-15 09:30:09.956500,-1.1196,2.1776,-9.4836,7.44,-2.29,20.54,
1999-01-15 09:30:10.025800,-1.1023,2.1393,-9.8863,2.34,-5.58,16.34,
1999-01-15 09:30:10.095000,-1.3392,2.1603,-9.4627,0.11,-1.54,12.83,
1999-01-15 09:30:10.164200,-0.9958,2.3093,-10.0317,-16.54,11.62,-3.44,
1999-01-15 09:30:10.233400,-0.6678,2.5385,-9.778,-5.95,3.88,-0.99,
1999-01-15 09:30:10.302600,-0.5894,2.5791,-10.17,4.03,0.14,1.65,
1999-01-15 09:30:10.371800,-0.9311,2.4924,-9.3131,6.06,4.36,-2.2,
1999-01-15 09:30:10.441000,-0.6624,2.4056,-9.0845,1.99,6.18,-5.99,
1999-01-15 09:30:10.510200,-0.3608,1.891,-9.7397,-0.75,6.79,-7.06,
1999-01-15 09:30:10.579400,-0.2854,1.3734,-9.4238,4.58,8.65,-7.52,
1999-01-15 09:30:10.648600,-0.4799,1.1866,-10.3818,7.77,4.7,-10.05,
1999-01-15 09:30:10.717900,-1.2441,0.9371,-9.5542,17.32,1.09,-15.15,
1999-01-15 09:30:10.787100,-2.0968,0.9335,-9.3867,17.16,-27.11,-33.28,
1999-01-15 09:30:10.856300,-3.5306,1.3913,-9.5997,1.86,-24.88,-64.16,
1999-01-15 09:30:10.925500,-2.2255,3.1728,-8.6051,-12.64,-20.04,-81.73,
1999-01-15 09:30:10.994700,-0.9156,3.4905,-8.6919,-30.81,-33.1,-83.98,
1999-01-15 09:30:11.063900,-1.6013,2.9915,-8.7996,-44.84,-40.01,-52.02,
1999-01-15 09:30:11.133100,-2.9849,3.0417,-10.0647,-50.72,-30.16,-43.61,
1999-01-15 09:30:11.202300,-2.3966,3.2374,-11.4865,-61.18,-17.32,-40.23,
1999-01-15 09:30:11.271500,-2.8269,3.3756,-10.4297,-28.02,-2.41,-18.87,
1999-01-15 09:30:11.340700,-3.7706,3.4959,-9.258,-22.72,9.33,-3.52,
1999-01-15 09:30:11.409900,-4.5874,3.0435,-8.7488,-20.55,7.09,16.39,
1999-01-15 09:30:11.479200,-4.7191,3.1841,-8.346,-7.41,5.43,19.88,
1999-01-15 09:30:11.548400,-5.5371,2.32,-7.2563,2.25,7.19,16.42,
1999-01-15 09:30:11.617600,-5.0727,2.2111,-8.2718,-9.64,4.59,-2.36,
1999-01-15 09:30:11.686800,-4.3768,2.9442,-8.0684,0.22,7.05,-19.24,
1999-01-15 09:30:11.756000,-3.8705,3.6401,-9.2041,0.57,5.34,-27.66,
1999-01-15 09:30:11.825200,-4.1051,3.755,-8.6189,13.31,-4.9,-22.7,
1999-01-15 09:30:11.894400,-3.2835,3.4121,-8.7649,34.97,-23.41,-22.95,
1999-01-15 09:30:11.963600,-4.1069,2.0256,-8.6386,39.92,-4.79,-41.26,
1999-01-15 09:30:12.032800,-4.5282,1.8425,-8.3017,26.51,22.79,-35.53,
1999-01-15 09:30:12.102000,-5.5532,2.1297,-9.3705,3.73,30.18,-13.69,
1999-01-15 09:30:12.171300,-5.7729,1.9951,-9.2927,0.5,25.58,9.79,
1999-01-15 09:30:12.240500,-5.2858,1.5349,-9.045,19.93,38.12,11.44,
1999-01-15 09:30:12.309700,-5.1858,0.6798,-9.4274,8.61,39.67,36.51,
1999-01-15 09:30:12.378900,-4.4282,0.8521,-9.8163,12.18,21.45,31.61,
1999-01-15 09:30:12.448100,-3.2607,1.4051,-8.5674,16.33,16.07,27.93,
1999-01-15 09:30:12.517300,-2.5905,1.2267,-8.4872,22.43,14.74,33.07,
1999-01-15 09:30:12.586500,-1.3644,1.3728,-7.8625,29.12,13.32,47.61,
1999-01-15 09:30:12.655700,-1.7348,1.2902,-9.5518,32.0,-8.87,71.74,
1999-01-15 09:30:12.724900,-3.22,1.0783,-12.1196,35.35,-33.44,88.19,
1999-01-15 09:30:12.794100,-3.0411,-0.1945,-12.2704,2.66,-11.41,53.64,
1999-01-15 09:30:12.863400,-0.6379,-0.1065,-9.8546,7.69,6.35,32.22,
1999-01-15 09:30:12.932600,0.3375,0.4327,-8.7517,12.72,13.42,31.38,
1999-01-15 09:30:13.001800,-0.4817,0.4715,-9.179,15.96,0.45,39.1,
1999-01-15 09:30:13.071000,-0.8049,0.7731,-9.9952,7.61,2.2,38.65,
1999-01-15 09:30:13.140200,-1.0035,1.3596,-11.8503,9.54,1.51,45.25,
1999-01-15 09:30:13.209400,-2.2063,1.6408,-10.8982,31.48,0.06,61.28,
1999-01-15 09:30:13.278600,-4.1015,1.7587,-8.8254,53.37,-7.64,60.56,
1999-01-15 09:30:13.347800,-4.5551,1.7503,-7.8565,51.92,-18.96,51.82,
1999-01-15 09:30:13.417000,-2.9962,1.1274,-6.3521,26.63,-17.78,41.51,
1999-01-15 09:30:13.486200,-3.1411,-0.4596,-9.9928,-21.18,-25.36,26.29,
1999-01-15 09:30:13.555500,-3.4995,-2.1836,-13.1656,-15.4,-11.69,29.69,
1999-01-15 09:30:13.624700,-3.8645,-2.1411,-9.7631,4.28,12.63,14.94,
1999-01-15 09:30:13.695400,-2.019,-1.1621,-8.4232,20.36,14.41,16.42,
1999-01-15 09:30:13.764500,-2.6869,-1.1687,-9.3693,20.35,9.07,35.71,
1999-01-15 09:30:13.833700,-5.2528,-1.6241,-10.6158,33.96,-1.34,41.17,
1999-01-15 09:30:13.902900,-6.9386,-2.0705,-10.702,57.02,-15.89,15.22,
1999-01-15 09:30:13.972000,-5.8734,-1.1071,-9.6278,102.57,-91.66,-5.0,
1999-01-15 09:30:14.041200,-2.402,-1.1681,-8.595,99.06,-66.64,-11.24,
1999-01-15 09:30:14.110400,-2.9974,-1.7444,-4.36,63.65,-19.93,1.86,
1999-01-15 09:30:14.179500,-2.8957,-2.7832,-6.1852,-25.97,44.1,5.59,
1999-01-15 09:30:14.248700,-1.8982,-2.6037,-8.419,-61.8,64.01,-1.57,
1999-01-15 09:30:14.317900,-4.5024,-3.5647,-11.9257,-41.98,26.4,18.7,
1999-01-15 09:30:14.387000,-2.7491,-2.7682,-11.7258,-26.36,47.08,21.46,
1999-01-15 09:30:14.456200,-2.6815,-2.8155,-8.4364,9.0,29.39,41.45,
1999-01-15 09:30:14.525300,-3.1865,-3.1099,-9.5734,11.84,19.53,42.69,
1999-01-15 09:30:14.594500,-3.1183,-3.0459,-10.0467,33.19,18.12,45.01,
1999-01-15 09:30:14.663700,-2.5809,-3.1069,-10.2897,7.88,20.99,26.15,
1999-01-15 09:30:14.732800,-0.4955,-1.511,-9.8109,12.33,42.78,38.26,
1999-01-15 09:30:14.802000,-2.1603,-1.6001,-8.4681,20.98,22.22,69.96,
1999-01-15 09:30:14.871200,-4.5581,-1.7928,-7.8817,14.31,11.18,64.23,
1999-01-15 09:30:14.940300,-2.7778,-0.4452,-8.9576,-36.21,-4.36,52.77,
1999-01-15 09:30:15.009500,-3.2859,-0.2424,-9.2789,-18.28,34.23,27.98,
1999-01-15 09:30:15.078700,-2.7688,-0.69,-10.3722,13.8,26.0,18.94,
1999-01-15 09:30:15.147800,-2.3757,-1.4721,-10.2095,24.78,35.19,-12.17,
1999-01-15 09:30:15.217000,-1.724,-1.1112,-9.9911,4.26,-8.92,-6.13,
1999-01-15 09:30:15.286100,-2.6635,-1.1118,-10.2897,-2.71,6.03,-11.93,
1999-01-15 09:30:15.355300,-2.3906,-1.5876,-10.319,20.12,56.43,-12.63,
1999-01-15 09:30:15.424500,-0.4243,-0.7031,-9.2706,-2.03,55.74,-18.78,
1999-01-15 09:30:15.493600,-0.6439,-0.8844,-11.6588,16.22,-62.91,-11.99,
1999-01-15 09:30:15.562800,-1.8299,-1.7306,-8.6392,17.05,-26.54,-8.56,
1999-01-15 09:30:15.632000,-1.821,-1.5176,-10.0347,14.37,-15.43,-0.43,
1999-01-15 09:30:15.701100,-2.0549,-1.3596,-8.8948,7.33,-2.63,-4.29,
1999-01-15 09:30:15.770300,-2.1447,-1.5391,-10.0168,8.4,0.83,-7.63,
1999-01-15 09:30:15.839500,-2.3595,-1.9047,-8.872,6.17,0.63,-7.9,
1999-01-15 09:30:15.908600,-2.7473,-1.9496,-9.4441,2.7,7.24,-8.46,
1999-01-15 09:30:15.977800,-2.5247,-2.0585,-10.3268,5.54,21.81,-15.39,
1999-01-15 09:30:16.046900,-1.8646,-3.0363,-9.6057,8.44,1.85,-7.17,
1999-01-15 09:30:16.116100,-2.0735,-2.0017,-9.264,6.76,-1.1,2.65,
1999-01-15 09:30:16.185300,-1.8252,-2.1926,-9.4232,3.12,6.44,-1.23,
1999-01-15 09:30:16.254400,-1.7103,-2.2937,-9.5045,0.11,4.16,2.68,
1999-01-15 09:30:16.323600,-1.5116,-2.2219,-9.4944,-1.93,-1.66,1.88,
1999-01-15 09:30:16.392800,-1.4374,-2.8395,-9.8821,-3.79,11.73,6.48,
1999-01-15 09:30:16.461900,-1.511,-2.4834,-9.705,-1.17,9.49,16.59,
1999-01-15 09:30:16.531100,-1.9065,-2.0771,-8.4777,-14.11,0.52,24.53,
1999-01-15 09:30:16.600300,-2.7138,-0.3046,-9.4136,-21.53,14.03,16.9,
1999-01-15 09:30:16.669400,-2.2375,-0.8138,-11.0263,-14.17,31.26,-13.34,
1999-01-15 09:30:16.738600,-1.0484,-2.1974,-10.0335,5.77,9.19,-28.54,
1999-01-15 09:30:16.807700,-0.8126,-2.0992,-9.6182,-5.22,7.25,-12.31,
1999-01-15 09:30:16.876900,-1.0143,-1.1729,-9.541,-13.2,8.1,-9.53,
1999-01-15 09:30:16.946100,-0.7869,-1.3177,-9.3065,-15.23,23.27,-10.52,
1999-01-15 09:30:17.015200,-0.921,-0.9257,-9.8205,-23.0,20.73,-10.84,
1999-01-15 09:30:17.084400,-0.3178,-1.6402,-10.6385,-17.28,37.0,-13.5,
1999-01-15 09:30:17.153600,-0.3644,-0.9778,-10.0407,-14.09,6.37,-6.13,
1999-01-15 09:30:17.222700,-0.6511,-0.4871,-9.5063,-12.5,-1.16,-4.38,
1999-01-15 09:30:17.291900,-1.0179,-0.0162,-10.1508,-17.25,10.39,-1.92,
1999-01-15 09:30:17.361100,-1.1136,0.8497,-10.7474,-3.54,4.52,-14.21,
1999-01-15 09:30:17.430200,0.2005,-0.7432,-11.9526,10.21,24.44,-18.4,
1999-01-15 09:30:17.499400,0.3644,-0.8408,-10.5177,21.87,-18.65,-6.57,
1999-01-15 09:30:17.568600,0.4602,-1.2237,-10.0605,22.92,0.78,12.02,
1999-01-15 09:30:17.637700,-0.1137,-0.757,-8.717,17.96,-28.66,31.73,
1999-01-15 09:30:17.706900,-0.8641,-0.6954,-8.9313,9.27,-7.79,30.9,
1999-01-15 09:30:17.776000,-1.8108,-0.386,-9.8067,10.57,-27.53,35.46,
1999-01-15 09:30:17.845200,-3.0375,0.076,-9.4776,8.16,-30.51,23.89,
1999-01-15 09:30:17.914400,-3.5635,-1.1501,-9.7864,44.28,-47.06,25.74,
1999-01-15 09:30:17.983500,-3.2589,-2.3559,-10.9563,15.04,-32.3,11.61,
1999-01-15 09:30:18.052700,-3.0148,-1.2489,-8.9821,8.47,-52.52,23.8,
1999-01-15 09:30:18.121900,-2.7826,-1.0281,-9.8049,40.64,-9.68,16.37,
1999-01-15 09:30:18.191000,-2.1842,-1.6217,-8.1868,-12.08,2.36,21.48,
1999-01-15 09:30:18.260200,-2.4972,-1.6803,-9.5602,-3.29,14.82,13.3,
1999-01-15 09:30:18.329400,-2.5426,-3.4636,-9.5889,1.59,23.05,2.76,
1999-01-15 09:30:18.398500,-2.5462,-4.0087,-9.4351,0.68,17.55,0.32,
1999-01-15 09:30:18.467700,-2.5809,-2.6916,-9.6912,-17.51,46.35,-1.3,
1999-01-15 09:30:18.536800,-2.2811,-2.7611,-11.1753,-3.26,27.81,-11.1,
1999-01-15 09:30:18.606000,-1.9239,-2.5947,-9.4956,6.28,14.39,3.86,
1999-01-15 09:30:18.675200,-2.0508,-1.4164,-9.3274,4.69,9.05,6.86,
1999-01-15 09:30:18.744300,-1.5026,-1.6396,-9.2389,13.02,15.08,-2.45,
1999-01-15 09:30:18.813500,-1.0305,-2.9508,-10.9054,8.37,21.74,-1.53,
1999-01-15 09:30:18.882700,-0.9964,-2.2393,-9.1246,4.5,1.61,12.79,
1999-01-15 09:30:18.951800,-1.1418,-2.0819,-9.8403,2.05,4.14,18.56,
1999-01-15 09:30:19.021000,-1.3716,-2.0825,-9.4459,2.85,-0.3,17.94,
1999-01-15 09:30:19.090200,-1.6965,-1.9508,-9.6733,-2.37,7.85,19.54,
1999-01-15 09:30:19.159300,-1.6367,-1.8467,-9.7792,-1.54,4.0,14.78,
1999-01-15 09:30:19.228500,-1.5702,-1.7007,-10.404,-1.36,0.97,11.01,
1999-01-15 09:30:19.297600,-1.5218,-1.9377,-9.0707,-0.38,-1.88,8.07,
1999-01-15 09:30:19.366800,-1.8162,-1.806,-10.1676,-3.24,2.42,5.43,
1999-01-15 09:30:19.436000,-1.8347,-1.958,-9.699,-1.76,-8.1,0.63,
1999-01-15 09:30:19.505100,-1.9951,-1.9311,-9.6404,-1.23,-2.3,1.01,
1999-01-15 09:30:19.574300,-2.0932,-1.4218,-9.641,-0.75,-5.61,-0.53,
1999-01-15 09:30:19.643500,-2.1339,-1.3327,-8.7667,-6.06,-8.31,-3.08,
1999-01-15 09:30:19.712600,-2.5379,-0.8964,-8.4202,-6.57,2.75,-10.5,
1999-01-15 09:30:19.781800,-1.9466,-2.861,-12.5469,-2.98,55.49,-16.84,
1999-01-15 09:30:19.851000,-1.134,-3.1399,-11.9329,20.28,-20.66,3.45,
1999-01-15 09:30:19.920100,-2.1692,-1.8964,-6.5771,11.5,-14.91,29.21,
1999-01-15 09:30:19.989300,-2.8939,-1.8138,-9.2371,4.36,14.5,34.03,
1999-01-15 09:30:20.058400,-3.1464,-1.1998,-10.5003,-0.98,12.73,31.45,
1999-01-15 09:30:20.127600,-3.1428,-0.7875,-10.8157,5.94,4.35,19.22,
1999-01-15 09:30:20.196800,-2.9436,-0.675,-7.9684,1.95,-16.06,12.25,
1999-01-15 09:30:20.265900,-3.0794,-0.7115,-9.0426,-10.13,8.25,-2.43,
1999-01-15 09:30:20.335100,-2.4194,-0.7492,-10.4411,-12.76,6.57,-22.94,
1999-01-15 09:30:20.404300,-1.207,-1.9365,-10.9491,3.44,9.26,-43.15,
1999-01-15 09:30:20.473400,-0.7378,-2.5205,-8.881,3.35,4.38,-33.04,
1999-01-15 09:30:20.542600,-0.8683,-2.0843,-9.7559,-5.73,9.12,-17.54,
1999-01-15 09:30:20.611800,-1.289,-1.1412,-9.5255,-9.01,4.84,-10.19,
1999-01-15 09:30:20.680900,-1.213,-1.6678,-9.9863,-11.09,13.02,-9.64,
1999-01-15 09:30:20.750100,-1.1005,-1.9532,-10.079,-8.66,11.48,-10.56,
1999-01-15 09:30:20.819200,-0.9934,-2.1489,-9.8564,-6.39,5.08,-1.67,
1999-01-15 09:30:20.888400,-1.2926,-1.3913,-10.2759,-6.97,6.43,1.93,
1999-01-15 09:30:20.957600,-1.2154,-1.2471,-9.9498,-2.2,4.16,3.5,
1999-01-15 09:30:21.026700,-1.1735,-1.2902,-9.6027,-2.75,5.56,3.32,
1999-01-15 09:30:21.095900,-1.2267,-1.1747,-9.8061,-3.05,7.63,3.88,
1999-01-15 09:30:21.165100,-1.0287,-1.3279,-9.8648,-3.26,1.5,5.19,
1999-01-15 09:30:21.234200,-1.2255,-0.9216,-9.8319,-7.04,6.9,5.04,
1999-01-15 09:30:21.303400,-1.0275,-1.1166,-10.0976,-5.02,6.88,5.98,
1999-01-15 09:30:21.372600,-0.9329,-1.2746,-9.9252,-2.98,4.78,7.18,
1999-01-15 09:30:21.441700,-1.0209,-1.1531,-10.0982,-3.5,7.04,11.86,
1999-01-15 09:30:21.510900,-1.216,-0.9293,-10.1305,-3.4,5.59,13.04,
1999-01-15 09:30:21.580100,-1.3261,-0.818,-9.9791,-1.52,0.72,11.28,
1999-01-15 09:30:21.649200,-1.3249,-0.8384,-10.1867,0.46,0.52,6.19,
1999-01-15 09:30:21.718400,-1.2309,-0.7977,-10.2274,0.3,1.51,3.65,
1999-01-15 09:30:21.787500,-1.119,-0.742,-9.5464,-0.42,-2.12,0.72,
1999-01-15 09:30:21.856700,-1.0257,-0.8073,-9.9797,-0.66,-0.8,0.32,
1999-01-15 09:30:21.925900,-0.9856,-0.921,-9.9324,-0.96,0.8,0.04,
1999-01-15 09:30:21.995000,-1.1124,-0.9311,-9.927,-1.46,3.09,2.3,
1999-01-15 09:30:22.064200,-1.268,-0.8114,-10.2053,-0.3,1.47,2.61,
1999-01-15 09:30:22.133400,-1.3321,-0.8174,-9.9946,1.06,0.53,0.5,
1999-01-15 09:30:22.202500,-1.3063,-0.8587,-9.9354,2.0,0.04,-1.83,
1999-01-15 09:30:22.271700,-1.2112,-0.9114,-10.1736,1.8,-0.09,-1.87,
1999-01-15 09:30:22.340900,-1.2052,-0.8468,-9.7864,1.12,2.0,-1.82,
1999-01-15 09:30:22.410000,-1.2393,-0.8246,-10.0174,2.03,1.3,-2.19,
1999-01-15 09:30:22.479200,-1.1765,-0.9742,-10.018,1.09,-0.52,-2.53,
1999-01-15 09:30:22.548300,-1.146,-0.9898,-9.8403,1.35,0.26,-2.1,
1999-01-15 09:30:22.617500,-1.2417,-0.9168,-10.0096,0.35,2.26,-0.66,
1999-01-15 09:30:22.686700,-1.2154,-0.9904,-9.7625,-1.22,0.18,-0.48,
1999-01-15 09:30:22.755800,-1.3865,-0.8677,-10.0042,-1.34,1.92,-0.11,
1999-01-15 09:30:22.825000,-1.4607,-0.8348,-9.921,0.34,-2.4,-0.82,
1999-01-15 09:30:22.894200,-1.3404,-1.0053,-9.9414,1.37,-0.83,-2.35,
1999-01-15 09:30:22.963300,-1.3656,-0.7468,-9.8145,0.19,2.03,-0.89,
1999-01-15 09:30:23.032500,-1.3195,-0.7809,-9.9629,-1.11,2.69,-1.88,
1999-01-15 09:30:23.101700,-1.2644,-0.8904,-9.9133,-1.7,1.88,-1.72,
1999-01-15 09:30:23.170800,-1.4637,-0.7325,-9.6733,-3.64,2.98,-0.41,
1999-01-15 09:30:23.240000,-1.4577,-0.9557,-10.2047,-3.85,2.63,-1.11,
1999-01-15 09:30:23.309100,-1.4338,-0.7983,-10.0766,-2.42,5.14,-3.22,
1999-01-15 09:30:23.378300,-1.2136,-0.9557,-9.7068,-0.49,-0.68,-1.29,
1999-01-15 09:30:23.447500,-1.3237,-0.7217,-9.9097,-0.81,0.17,-0.72,
1999-01-15 09:30:23.516600,-1.3728,-0.8671,-9.9671,-1.41,2.44,-1.44,
1999-01-15 09:30:23.585800,-1.5224,-0.7229,-10.1472,-1.8,4.04,-0.95,
1999-01-15 09:30:23.655000,-1.4146,-0.8773,-9.8768,-0.25,2.54,-1.52,
1999-01-15 09:30:23.724100,-1.423,-0.7612,-10.0359,-0.65,1.72,-0.77,
1999-01-15 09:30:23.793300,-1.4278,-0.6912,-9.9755,0.59,0.28,-1.5,
1999-01-15 09:30:23.862500,-1.3315,-0.7612,-9.9743,0.42,1.86,-1.66,
1999-01-15 09:30:23.931600,-1.2728,-0.8635,-9.7565,0.38,3.12,-0.71,
1999-01-15 09:30:24.000800,-1.5259,-0.6116,-9.9767,-0.15,4.14,-0.38,
1999-01-15 09:30:24.069900,-1.4589,-0.7444,-9.8492,-0.52,1.71,-1.02,
1999-01-15 09:30:24.139100,-1.4398,-0.7815,-10.1065,-1.57,4.31,-2.4,
1999-01-15 09:30:24.208300,-1.417,-0.6092,-9.8576,-2.55,3.9,-2.5,
1999-01-15 09:30:24.277400,-1.3913,-0.69,-10.1329,-1.01,5.59,-5.01,
1999-01-15 09:30:24.346600,-1.201,-1.1035,-9.8935,-0.26,2.88,-3.3,
1999-01-15 09:30:24.415800,-1.3117,-0.8073,-9.9504,-2.68,6.22,-0.98,
1999-01-15 09:30:24.484900,-1.1759,-0.6265,-9.8498,-4.62,10.31,-2.49,
1999-01-15 09:30:24.554100,-1.0765,-0.4871,-10.1407,-5.64,13.75,-2.74,
1999-01-15 09:30:24.623300,-0.9425,-0.5176,-9.9641,-4.65,10.44,-2.91,
1999-01-15 09:30:24.692400,-0.9987,-0.3979,-10.0772,-4.82,8.38,-1.53,
1999-01-15 09:30:24.761600,-0.9245,-0.5069,-10.0844,-1.78,4.0,-1.02,
1999-01-15 09:30:24.830800,-0.8982,-0.4698,-10.088,-0.8,1.58,-1.02,
1999-01-15 09:30:24.899900,-0.8916,-0.4769,-9.9737,-0.55,2.16,0.39,
1999-01-15 09:30:24.969100,-0.9557,-0.4704,-9.8014,0.21,0.01,1.51,
1999-01-15 09:30:25.038200,-0.9993,-0.5152,-10.1664,0.49,1.02,1.05,
1999-01-15 09:30:25.107400,-1.0155,-0.45,-9.8415,2.29,-0.44,-0.43,
1999-01-15 09:30:25.176600,-0.9987,-0.5463,-10.0826,1.84,0.87,0.33,
1999-01-15 09:30:25.245700,-1.0873,-0.5314,-10.076,1.39,0.92,1.61,
1999-01-15 09:30:25.314900,-1.0604,-0.517,-9.8744,2.18,1.29,0.46,
1999-01-15 09:30:25.384100,-1.0083,-0.6253,-9.8786,1.74,-0.22,0.67,
1999-01-15 09:30:25.453200,-1.0975,-0.5829,-10.1772,1.58,0.98,0.85,
1999-01-15 09:30:25.522400,-1.0628,-0.62,-9.9887,1.6,2.77,-0.43,
1999-01-15 09:30:25.591600,-1.1023,-0.584,-9.9085,0.6,2.56,0.64,
1999-01-15 09:30:25.660700,-1.1603,-0.602,-10.1197,-0.15,2.49,0.25,
1999-01-15 09:30:25.729900,-1.0933,-0.66,-10.03,-0.23,3.5,-0.92,
1999-01-15 09:30:25.799000,-1.1035,-0.6086,-10.0539,-0.86,2.54,-0.63,
1999-01-15 09:30:25.868200,-1.0598,-0.6577,-10.0282,-0.41,2.49,-0.76,
1999-01-15 09:30:25.937400,-1.0741,-0.5122,-9.9498,-0.19,0.96,-1.44,
1999-01-15 09:30:26.006500,-1.0149,-0.5769,-10.0455,-0.88,3.6,-0.33,
1999-01-15 09:30:26.075700,-1.0969,-0.5511,-9.9504,-2.22,4.65,0.22,
1999-01-15 09:30:26.144900,-1.0275,-0.5434,-9.8792,-0.81,1.67,0.04,
1999-01-15 09:30:26.214000,-1.0125,-0.5152,-10.176,-2.76,5.2,0.11,
1999-01-15 09:30:26.283200,-1.0424,-0.4327,-10.1215,-0.61,4.26,0.4,
1999-01-15 09:30:26.352400,-0.9281,-0.468,-10.082,-1.41,4.0,0.48,
1999-01-15 09:30:26.421500,-0.9545,-0.298,-9.8636,-2.54,4.7,0.39,
1999-01-15 09:30:26.490700,-0.994,-0.3573,-9.872,-0.55,3.37,0.79,
1999-01-15 09:30:26.559800,-0.9987,-0.4817,-10.0784,-0.39,1.51,0.92,
1999-01-15 09:30:26.629000,-0.9874,-0.3848,-10.0539,-0.44,2.64,0.14,
1999-01-15 09:30:26.698200,-0.9581,-0.3967,-9.8911,0.96,1.46,1.27,
1999-01-15 09:30:26.767300,-0.979,-0.3028,-10.0832,0.72,0.6,0.42,
1999-01-15 09:30:26.836500,-0.9102,-0.368,-9.8456,0.22,0.66,-0.96,
1999-01-15 09:30:26.905700,-0.9521,-0.462,-10.1939,0.05,2.82,0.73,
1999-01-15 09:30:26.974800,-1.052,-0.3728,-10.0377,0.6,1.72,1.08,
1999-01-15 09:30:27.044000,-0.9593,-0.4159,-9.918,0.64,1.46,0.34,
1999-01-15 09:30:27.113200,-1.0041,-0.4177,-9.8313,0.16,0.42,0.87,
1999-01-15 09:30:27.182300,-1.0646,-0.441,-10.1149,0.07,-0.86,-0.56,
1999-01-15 09:30:27.251500,-1.0508,-0.395,-10.0305,0.07,2.27,0.11,
1999-01-15 09:30:27.320600,-1.0388,-0.3776,-10.0545,-0.16,1.75,0.1,
1999-01-15 09:30:27.389800,-1.0406,-0.3782,-9.936,-1.82,2.92,0.18,
1999-01-15 09:30:27.459000,-1.0352,-0.4213,-10.1119,-0.93,2.64,-0.67,
1999-01-15 09:30:27.528100,-1.0185,-0.4997,-9.9246,0.2,1.72,0.26,
1999-01-15 09:30:27.597300,-1.1017,-0.3112,-10.1442,0.77,0.52,0.81,
1999-01-15 09:30:27.666500,-1.0203,-0.4614,-9.9629,0.22,0.6,0.44,
1999-01-15 09:30:27.735600,-1.04,-0.4949,-9.945,1.06,0.48,0.9,
1999-01-15 09:30:27.804800,-1.0586,-0.3716,-10.021,1.06,-0.03,0.44,
1999-01-15 09:30:27.874000,-1.0765,-0.3746,-10.0802,0.88,2.55,-0.02,
1999-01-15 09:30:27.943100,-1.1753,-0.386,-10.0162,1.42,3.34,0.85,
1999-01-15 09:30:28.012300,-1.1579,-0.4356,-9.8235,0.65,0.04,0.49,
1999-01-15 09:30:28.081500,-1.2118,-0.4727,-9.8983,-0.04,0.03,-0.19,
1999-01-15 09:30:28.150600,-1.4003,-0.3985,-10.2382,1.09,-1.23,-2.64,
1999-01-15 09:30:28.219800,-1.0927,-0.7977,-9.9923,1.47,-0.26,-3.66,
1999-01-15 09:30:28.288900,-1.4799,-0.5565,-9.5129,-2.51,-3.11,-2.91,
1999-01-15 09:30:28.358100,-2.022,0.0036,-10.0503,-7.12,2.87,-8.87,
1999-01-15 09:30:28.427300,-1.9777,-0.0287,-10.7343,-4.92,-1.05,-21.66,
1999-01-15 09:30:28.496400,-1.5194,-0.1813,-9.9659,-3.02,1.7,-30.6,
1999-01-15 09:30:28.565600,-1.1077,-0.3997,-10.4841,1.01,3.99,-36.12,
1999-01-15 09:30:28.634800,-0.6989,-0.7414,-9.7445,3.48,0.22,-32.65,
1999-01-15 09:30:28.703900,-0.7366,-0.5601,-9.9743,1.58,5.55,-23.9,
1999-01-15 09:30:28.773100,-0.9485,-0.1729,-9.7589,1.4,0.73,-17.03,
1999-01-15 09:30:28.842300,-0.8114,-0.538,-9.8612,-0.02,1.85,-13.18,
1999-01-15 09:30:28.911400,-0.7001,-0.8904,-9.8971,-0.56,0.75,-6.94,
1999-01-15 09:30:28.980600,-0.9132,-0.7378,-10.1628,-0.59,3.77,-0.6,
1999-01-15 09:30:29.049700,-0.8611,-0.8557,-10.1042,0.79,1.54,4.83,
1999-01-15 09:30:29.118900,-0.9964,-0.7295,-9.9103,0.83,4.96,9.7,
1999-01-15 09:30:29.188100,-1.2453,-0.5523,-9.8432,-0.31,2.33,12.36,
1999-01-15 09:30:29.257200,-1.5571,-0.4967,-9.9958,-0.52,3.4,11.17,
1999-01-15 09:30:29.326400,-1.6755,-0.6421,-10.2669,-1.14,3.79,8.73,
1999-01-15 09:30:29.395600,-1.5218,-0.7007,-10.2328,1.58,-2.03,6.07,
1999-01-15 09:30:29.464700,-1.3787,-0.7079,-10.1131,3.01,-2.33,4.02,
1999-01-15 09:30:29.533900,-1.1956,-0.7103,-9.775,4.23,-2.5,4.35,
1999-01-15 09:30:29.603100,-1.3446,-0.3261,-9.7828,1.63,1.15,4.94,
1999-01-15 09:30:29.672200,-1.3865,-0.4159,-9.9127,-0.1,0.75,4.29,
1999-01-15 09:30:29.741400,-1.3231,-0.684,-10.091,0.16,2.8,2.22,
1999-01-15 09:30:29.810500,-1.3339,-0.7755,-9.8654,-0.29,3.69,3.4,
1999-01-15 09:30:29.879700,-1.5206,-0.6792,-10.091,0.33,3.79,4.2,
1999-01-15 09:30:29.948900,-1.5978,-0.5571,-9.9928,1.85,3.72,3.74,
1999-01-15 09:30:30.018000,-1.4272,-0.7486,-9.7044,5.02,4.63,1.52,
1999-01-15 09:30:30.087200,-1.2273,-0.8791,-10.2789,5.47,8.71,-2.63,
1999-01-15 09:30:30.156400,-1.3452,-0.7474,-10.0635,9.7,-0.43,-3.53,
1999-01-15 09:30:30.225500,-1.3728,-0.8138,-9.8253,6.64,-1.24,-7.13,
1999-01-15 09:30:30.294700,-1.2944,-0.6852,-9.924,2.24,2.06,-8.51,
1999-01-15 09:30:30.363900,-1.2495,-0.827,-9.9085,-0.46,1.54,-3.28,
1999-01-15 09:30:30.433000,-1.2519,-0.7761,-9.9426,-0.95,2.63,0.79,
1999-01-15 09:30:30.502200,-1.1992,-0.9114,-9.9438,-1.22,7.03,-0.12,
1999-01-15 09:30:30.571300,-0.9964,-1.2459,-10.0335,-1.29,9.76,0.88,
1999-01-15 09:30:30.640500,-1.0448,-1.0179,-9.851,-0.61,9.07,1.72,
1999-01-15 09:30:30.709700,-1.0747,-1.2417,-10.1137,1.97,9.56,2.37,
1999-01-15 09:30:30.778800,-1.1483,-1.1268,-9.8486,3.33,2.77,3.32,
1999-01-15 09:30:30.848000,-1.2226,-1.0095,-10.0778,2.32,2.04,2.89,
1999-01-15 09:30:30.917200,-1.0352,-1.1986,-10.0264,1.37,-2.33,1.23,
1999-01-15 09:30:30.986300,-0.5739,-2.1106,-10.6367,13.9,-0.24,-11.1,
1999-01-15 09:30:31.055500,-0.4482,-2.5654,-9.2251,11.11,-0.03,1.23,
1999-01-15 09:30:31.124700,-1.1472,-1.5457,-10.0946,17.38,-1.08,3.68,
1999-01-15 09:30:31.193800,-1.5182,-1.1047,-9.9869,11.66,-1.42,8.58,
1999-01-15 09:30:31.263000,-1.7683,-0.5009,-9.6476,8.84,1.14,2.27,
1999-01-15 09:30:31.332200,-1.9,-0.7259,-9.5297,-7.02,1.82,-1.94,
1999-01-15 09:30:31.401300,-1.1938,-1.7246,-9.4154,1.0,8.08,-21.06,
1999-01-15 09:30:31.470500,-0.8037,-1.9915,-10.2831,-2.63,17.46,-15.0,
1999-01-15 09:30:31.539600,-0.8599,-1.5577,-10.2484,-11.44,11.08,-8.36,
1999-01-15 09:30:31.608800,-0.7462,-1.2734,-9.1676,-8.08,6.25,-7.03,
1999-01-15 09:30:31.678000,-0.8749,-0.9485,-10.4028,-8.82,14.69,-5.24,
1999-01-15 09:30:31.747100,-0.6343,-1.1807,-9.9534,-6.96,5.91,-5.3,
1999-01-15 09:30:31.816300,-0.4811,-1.371,-9.9438,-19.55,10.54,-8.53,
1999-01-15 09:30:31.885500,-0.6888,-1.0388,-10.3818,-10.56,6.97,-6.27,
1999-01-15 09:30:31.954600,-0.4255,-1.3817,-10.0228,-9.71,11.1,-5.11,
1999-01-15 09:30:32.023800,-0.1843,-1.2483,-10.3052,-4.26,9.3,2.84,
1999-01-15 09:30:32.093000,-0.5649,-0.2699,-10.03,-7.16,5.98,2.76,
1999-01-15 09:30:32.162100,-0.3561,-0.5481,-9.72,-3.84,0.66,6.07,
1999-01-15 09:30:32.231300,-0.6128,-0.3333,-9.8415,-0.96,2.7,-0.14,
1999-01-15 09:30:32.300400,-0.4303,-0.7516,-10.0653,-4.38,3.74,2.83,
1999-01-15 09:30:32.369600,-0.541,-0.7307,-10.0856,-6.41,0.26,1.55,
1999-01-15 09:30:32.438800,-0.6122,-0.6134,-9.9677,-5.13,-5.48,3.34,
1999-01-15 09:30:32.507900,-0.6876,-0.4853,-9.9845,-4.55,0.31,-0.85,
1999-01-15 09:30:32.577100,-0.4225,-0.8288,-10.3639,-2.07,-0.56,-2.85,
1999-01-15 09:30:32.646300,-0.3166,-0.9616,-10.4058,4.04,-2.66,-1.3,
1999-01-15 09:30:32.715400,-0.7157,-0.5661,-10.0479,8.05,-9.28,-1.49,
1999-01-15 09:30:32.784600,-0.6792,-0.7797,-9.8899,6.25,-2.23,-1.78,
1999-01-15 09:30:32.853800,-0.8659,-0.4237,-9.7972,2.62,1.78,0.32,
1999-01-15 09:30:32.922900,-0.8294,-0.5176,-9.6559,2.56,1.05,1.46,
1999-01-15 09:30:32.992100,-0.9802,-0.5428,-9.9192,-2.13,3.07,2.91,
1999-01-15 09:30:33.061200,-0.9862,-0.6463,-10.1143,-1.36,3.47,0.96,
1999-01-15 09:30:33.130400,-0.7743,-0.8539,-10.1532,-0.53,1.43,0.68,
1999-01-15 09:30:33.199600,-0.763,-0.8252,-9.9629,-0.35,1.82,2.12,
1999-01-15 09:30:33.268700,-0.8964,-0.5212,-10.2759,0.0,2.24,2.27,
1999-01-15 09:30:33.337900,-0.763,-0.7295,-10.003,-1.23,6.76,-0.41,
1999-01-15 09:30:33.407100,-0.6989,-0.833,-9.9803,-0.49,2.14,0.76,
1999-01-15 09:30:33.476200,-0.7791,-0.5852,-10.3262,0.52,2.45,0.55,
1999-01-15 09:30:33.545400,-0.7217,-0.5314,-9.8792,-0.32,0.59,2.2,
1999-01-15 09:30:33.614600,-0.7839,-0.4859,-10.0168,-1.7,3.9,3.59,
1999-01-15 09:30:33.683700,-0.7636,-0.6038,-9.9851,-1.73,3.08,2.11,
1999-01-15 09:30:33.752900,-0.815,-0.6559,-9.9097,-1.43,2.95,1.35,
1999-01-15 09:30:33.822000,-0.8456,-0.7797,-10.1807,-0.38,1.58,1.4,
1999-01-15 09:30:33.891200,-0.9646,-0.739,-10.0928,2.02,1.64,1.49,
1999-01-15 09:30:33.961400,-0.8246,-0.964,-10.2017,-0.46,-1.95,5.09,
1999-01-15 09:30:34.030300,-1.216,-0.076,-9.8875,-1.58,-0.31,1.56,
1999-01-15 09:30:34.099300,-0.76,-0.3764,-9.5991,-0.97,7.66,-4.55,
1999-01-15 09:30:34.168200,-0.3602,-0.6588,-10.3232,-2.81,7.13,-3.12,
1999-01-15 09:30:34.237200,-0.3884,-0.4704,-9.6811,-3.67,3.81,1.15,
1999-01-15 09:30:34.306100,-0.6152,-0.2525,-9.6739,-5.71,7.25,8.34,
1999-01-15 09:30:34.375100,-0.7534,-0.3261,-10.316,-6.96,3.34,8.3,
1999-01-15 09:30:34.444100,-0.6798,-0.6451,-10.2388,-3.69,2.82,7.91,
1999-01-15 09:30:34.513000,-0.885,-0.5511,-10.4847,0.19,3.06,5.96,
1999-01-15 09:30:34.582000,-0.7061,-0.6188,-10.599,3.83,-0.44,4.66,
1999-01-15 09:30:34.650900,-0.31,-0.4159,-9.5434,2.28,-2.28,3.72,
1999-01-15 09:30:34.719900,-0.1951,-0.1017,-9.7535,-7.94,18.37,7.18,
1999-01-15 09:30:34.788800,-0.3369,-0.0365,-9.553,-4.36,9.85,9.44,
1999-01-15 09:30:34.857800,-0.5069,-0.1221,-10.4075,-2.28,5.45,12.93,
1999-01-15 09:30:34.926700,-0.6092,-0.4931,-10.7133,10.45,6.89,17.07,
1999-01-15 09:30:34.995700,-0.6882,-0.4913,-10.4548,18.11,1.65,15.04,
1999-01-15 09:30:35.064600,-0.7522,-0.5942,-9.9982,29.64,5.15,25.15,
1999-01-15 09:30:35.133600,-0.6421,-0.903,-9.8109,23.98,-10.85,20.63,
1999-01-15 09:30:35.202500,-0.5248,-1.116,-10.1299,7.94,5.93,12.29,
1999-01-15 09:30:35.271500,-0.6469,-1.2668,-9.6129,14.51,2.37,10.97,
1999-01-15 09:30:35.340500,-0.368,-1.5373,-10.3848,25.46,-0.46,6.71,
1999-01-15 09:30:35.409400,-0.4973,-1.9592,-9.4716,24.29,-11.9,3.4,
1999-01-15 09:30:35.478400,-0.6008,-2.1303,-9.7307,18.47,-14.04,-2.13,
1999-01-15 09:30:35.547300,-0.7983,-2.1926,-9.2006,8.81,-4.73,1.02,
1999-01-15 09:30:35.616300,-0.9377,-2.019,-9.7266,-0.07,-1.81,-8.05,
1999-01-15 09:30:35.685200,-1.1489,-1.8868,-9.556,-2.52,4.32,-14.07,
1999-01-15 09:30:35.754200,-0.9993,-2.1052,-9.6547,-5.33,14.19,-16.59,
1999-01-15 09:30:35.823100,-0.8282,-1.9945,-9.8672,-6.55,12.49,-16.18,
1999-01-15 09:30:35.892100,-0.6062,-2.1405,-9.5135,-14.51,18.45,-17.35,
1999-01-15 09:30:35.961000,-0.0724,-1.4535,-10.2962,-22.02,5.77,-22.79,
1999-01-15 09:30:36.030000,0.4201,-1.8682,-9.8863,-14.9,10.11,-21.15,
1999-01-15 09:30:36.099000,0.3417,-1.5559,-10.1024,-5.92,10.61,-2.66,
1999-01-15 09:30:36.167900,-0.888,-1.1077,-7.9259,13.62,-16.22,-18.17,
1999-01-15 09:30:36.236900,-0.4698,-1.9179,-10.1143,10.04,-34.2,-23.62,
1999-01-15 09:30:36.305800,-0.8815,-1.0867,-9.1114,-14.46,5.35,-1.91,
1999-01-15 09:30:36.374800,-1.1932,-1.3279,-10.4099,13.77,29.38,-12.83,
1999-01-15 09:30:36.443700,0.3698,-1.6773,-11.7282,-12.18,-48.32,2.38,
1999-01-15 09:30:36.512700,-1.958,-1.9903,-7.537,-36.76,-47.68,8.93,
1999-01-15 09:30:36.581600,-1.4254,-0.7498,-9.2251,-63.74,14.27,-23.35,
1999-01-15 09:30:36.650600,-0.4075,-0.3375,-10.5266,-36.17,45.38,-61.9,
1999-01-15 09:30:36.719500,0.7917,-0.1209,-10.8085,-62.24,100.59,-80.03,
1999-01-15 09:30:36.788500,1.9628,0.438,-9.939,-11.18,72.58,-36.71,
1999-01-15 09:30:36.857400,2.338,-0.462,-9.7481,32.12,31.7,-0.13,
1999-01-15 09:30:36.926400,2.3218,-0.9251,-11.0975,43.28,-26.96,25.27,
1999-01-15 09:30:36.995400,1.14,-1.0011,-9.9557,25.39,-29.83,13.51,
1999-01-15 09:30:37.064300,0.5434,-0.915,-9.553,15.04,-7.77,-5.36,
1999-01-15 09:30:37.133300,1.189,-1.2285,-10.1903,-0.04,-2.78,-9.84,
1999-01-15 09:30:37.202200,1.7462,-1.5271,-9.9767,-31.61,21.76,-6.02,
1999-01-15 09:30:37.271200,1.6923,-1.3165,-11.049,-27.96,-44.06,7.8,
1999-01-15 09:30:37.340100,0.6774,-1.2716,-9.3765,7.29,-97.47,9.05,
1999-01-15 09:30:37.409100,-2.0633,-0.1412,-11.3895,-27.99,-84.33,11.49,
1999-01-15 09:30:37.478000,-2.5133,-0.6134,-8.5932,36.0,-65.29,20.33,
1999-01-15 09:30:37.547000,-2.5139,-1.4398,-8.3077,52.77,-50.87,24.46,
1999-01-15 09:30:37.615900,-2.9196,-0.2424,-8.4813,100.36,0.33,45.57,
1999-01-15 09:30:37.684900,-2.724,-3.1488,-10.9042,226.18,-194.36,-15.67,
1999-01-15 09:30:37.753900,-3.6623,-8.2078,-5.6616,67.66,-95.66,-21.7,
1999-01-15 09:30:37.822800,-5.7669,-6.4491,-9.7152,-36.56,-51.14,5.01,
1999-01-15 09:30:37.891800,-5.3947,-4.439,-5.8471,21.88,-35.2,-7.33,
1999-01-15 09:30:37.960700,-5.4844,-5.2678,-7.2276,-1.31,14.49,-45.75,
1999-01-15 09:30:38.029700,-4.1236,-5.9997,-6.7602,-34.86,5.14,-17.29,
1999-01-15 09:30:38.098600,-3.4044,-6.2881,-7.376,-33.36,21.38,-17.09,
1999-01-15 09:30:38.167600,-4.9997,-4.2619,-7.7853,7.15,-7.6,-3.31,
1999-01-15 09:30:38.236500,-3.5342,-5.6382,-7.2216,-19.85,-9.7,15.58,
1999-01-15 09:30:38.305500,-4.6604,-5.7531,-6.783,30.28,-14.07,44.24,
1999-01-15 09:30:38.374400,-4.0046,-5.3713,-5.5215,37.5,36.48,18.64,
1999-01-15 09:30:38.443400,-5.0907,-6.9045,-8.2694,61.86,58.16,7.27,
1999-01-15 09:30:38.512300,-5.2098,-4.4905,-6.3539,37.49,60.66,-24.31,
1999-01-15 09:30:38.581300,-3.3427,-5.8147,-6.0954,92.36,39.86,-28.76,
1999-01-15 09:30:38.650300,-3.1728,-7.4275,-6.184,24.96,44.47,-33.11,
1999-01-15 09:30:38.719200,-2.4834,-7.0947,-6.9086,-23.62,42.63,-40.84,
1999-01-15 09:30:38.788200,-2.4756,-7.6279,-8.3311,-17.1,35.89,-42.31,
1999-01-15 09:30:38.857100,-0.4871,-7.2928,-8.1815,1.59,-6.47,-16.19,
1999-01-15 09:30:38.926100,-1.5421,-7.0529,-9.1407,43.9,-42.31,-12.3,
1999-01-15 09:30:38.995000,-0.5398,-8.0139,-5.9985,-26.7,9.61,3.17,
1999-01-15 09:30:39.064000,-0.3573,-5.8788,-8.6602,-74.4,18.11,14.57,
1999-01-15 09:30:39.132900,-2.9573,-4.6233,-8.212,5.83,31.59,-18.24,
1999-01-15 09:30:39.201900,0.3908,-8.6775,-8.0366,11.41,19.37,-46.45,
1999-01-15 09:30:39.270800,0.8617,-5.941,-6.5221,-65.08,23.95,-24.59,
1999-01-15 09:30:39.339800,0.9772,-3.5869,-6.534,-155.56,38.89,-31.74,
1999-01-15 09:30:39.408700,1.0837,-3.7179,-8.5878,-16.5,137.8,-0.34,
1999-01-15 09:30:39.477700,3.7185,-3.2607,-10.1508,-72.23,23.01,-30.5,
1999-01-15 09:30:39.546700,2.9855,-3.2236,-9.5231,-18.2,-4.79,-9.43,
1999-01-15 09:30:39.615600,2.4876,-2.7545,-10.4704,-14.48,-52.23,-7.88,
1999-01-15 09:30:39.684600,0.8324,-3.3679,-10.7014,-63.04,96.36,-39.03,
1999-01-15 09:30:39.753500,3.2075,-1.4703,-12.4403,94.26,176.87,-38.83,
1999-01-15 09:30:39.822500,5.4234,-1.7934,-4.6508,-32.1,193.48,-25.95,
1999-01-15 09:30:39.891400,7.847,0.8593,-9.7248,6.37,112.1,15.56,
1999-01-15 09:30:39.960400,12.2608,-1.3787,-8.3149,-43.16,150.61,59.87,
1999-01-15 09:30:40.029300,11.1203,-3.1237,-0.1293,-97.62,243.9,107.42,
1999-01-15 09:30:40.098300,7.0307,-3.153,-3.165,-67.47,68.35,154.55,
1999-01-15 09:30:40.167200,5.1308,-6.2528,-3.2775,-87.25,88.98,121.82,
1999-01-15 09:30:40.236200,6.5298,-5.8489,-3.4181,-83.34,37.21,98.39,
1999-01-15 09:30:40.305200,5.9739,-6.6304,-2.8059,-44.14,24.28,54.25,
1999-01-15 09:30:40.374100,5.3713,-7.2282,-3.527,-20.2,7.32,23.71,
1999-01-15 09:30:40.443100,7.9714,-6.4622,-1.0831,-14.25,18.6,11.86,
1999-01-15 09:30:40.512000,8.0091,-6.0559,-2.3559,-1.57,34.31,1.28,
1999-01-15 09:30:40.581000,6.3013,-6.9547,-3.2033,21.89,40.36,-9.28,
1999-01-15 09:30:40.649900,7.2455,-6.8117,-0.8641,-8.48,77.48,16.83,
1999-01-15 09:30:40.718900,8.1132,-6.8566,-2.2398,-5.74,26.05,14.69,
1999-01-15 09:30:40.787800,6.0978,-7.0259,-2.2476,10.95,-16.63,-0.27,
1999-01-15 09:30:40.856800,7.1749,-6.406,-2.4583,17.82,-28.23,-1.12,
1999-01-15 09:30:40.925700,7.057,-6.7692,-2.2045,13.52,-39.47,-2.14,
1999-01-15 09:30:40.994700,7.4849,-6.5328,-2.0825,12.09,-30.48,-2.27,
1999-01-15 09:30:41.063600,6.5406,-6.3611,-1.4374,5.07,-25.0,-0.58,
1999-01-15 09:30:41.132600,7.1432,-6.6328,-2.4266,-3.67,-39.19,4.65,
1999-01-15 09:30:41.201600,6.8147,-6.9314,-2.6396,19.45,-22.03,-5.04,
1999-01-15 09:30:41.270500,6.6388,-6.0775,-1.0712,18.82,-13.82,-11.0,
1999-01-15 09:30:41.339500,7.2815,-6.4826,-1.6995,3.54,-10.4,-16.02,
1999-01-15 09:30:41.408400,8.1737,-6.789,-2.8179,-5.01,-4.03,-11.8,
1999-01-15 09:30:41.477400,7.2444,-6.4586,-2.5833,-9.12,9.54,-3.66,
1999-01-15 09:30:41.546300,7.1971,-6.4197,-3.7999,-7.81,1.89,4.32,
1999-01-15 09:30:41.615300,6.4078,-6.0691,-2.5576,0.72,4.37,-2.7,
1999-01-15 09:30:41.684200,7.3389,-6.3713,-2.8652,-0.87,-1.92,-5.06,
1999-01-15 09:30:41.753200,7.2964,-6.5562,-2.8305,-5.1,-0.8,-0.4,
1999-01-15 09:30:41.822100,7.1731,-6.5897,-3.0274,-2.05,1.39,0.53,
1999-01-15 09:30:41.891100,7.2976,-6.1451,-2.7575,-6.35,-0.59,1.57,
1999-01-15 09:30:41.960000,7.3323,-6.2079,-3.6036,-5.86,-2.39,3.33,
1999-01-15 09:30:42.029000,6.2648,-6.0493,-3.0555,0.97,0.13,-1.43,
1999-01-15 09:30:42.098000,7.3054,-6.1487,-2.9202,0.28,-3.17,-4.7,
1999-01-15 09:30:42.166900,7.2892,-6.2845,-2.9065,-2.17,-0.64,-4.16,
1999-01-15 09:30:42.235900,7.1384,-6.4521,-3.4151,-0.8,0.56,-1.58,
1999-01-15 09:30:42.304800,7.1151,-6.2648,-3.2613,1.01,0.35,-0.03,
1999-01-15 09:30:42.373800,7.0547,-6.1983,-3.1985,3.7,0.61,-0.79,
1999-01-15 09:30:42.442700,7.0529,-6.0966,-3.314,5.56,-4.62,-2.14,
1999-01-15 09:30:42.511700,7.1103,-5.8919,-3.2464,3.63,-6.5,-6.01,
1999-01-15 09:30:42.580600,7.3407,-6.1989,-3.5462,0.8,-6.29,-4.38,
1999-01-15 09:30:42.649600,7.3144,-6.233,-3.3942,1.63,-4.73,-2.19,
1999-01-15 09:30:42.718500,7.3006,-6.2193,-3.4498,2.59,-0.17,2.03,
1999-01-15 09:30:42.787500,7.0947,-6.1439,-3.3834,5.01,0.48,3.46,
1999-01-15 09:30:42.856500,7.1127,-5.947,-3.1973,5.06,2.3,3.19,
1999-01-15 09:30:42.925400,7.1654,-5.9895,-3.2236,4.0,2.87,1.46,
1999-01-15 09:30:42.994400,7.0906,-5.9811,-3.074,1.16,2.98,-0.55,
1999-01-15 09:30:43.063300,7.2354,-6.1373,-3.3158,-1.14,3.45,-0.89,
1999-01-15 09:30:43.132300,7.2904,-6.2211,-3.3278,-0.12,2.98,-1.52,
1999-01-15 09:30:43.201200,7.2844,-6.1935,-3.4702,-0.75,2.63,0.58,
1999-01-15 09:30:43.270200,7.0247,-6.0475,-3.2422,-0.62,3.71,-0.55,
1999-01-15 09:30:43.339100,7.2641,-6.0822,-3.2428,-1.77,2.51,0.11,
1999-01-15 09:30:43.408100,7.2707,-6.0912,-3.3463,-1.78,1.86,1.42,
1999-01-15 09:30:43.477000,7.1618,-6.0068,-3.2871,-1.11,1.74,1.57,
1999-01-15 09:30:43.546000,7.1378,-5.9021,-3.2434,-1.36,3.02,-1.2,
1999-01-15 09:30:43.614900,7.4915,-5.9703,-3.4103,-3.19,0.66,-1.07,
1999-01-15 09:30:43.683900,6.8267,-5.8788,-3.4139,-2.43,3.96,-3.58,
1999-01-15 09:30:43.752900,7.1672,-6.0164,-3.6246,1.08,2.71,-4.57,
1999-01-15 09:30:43.821800,7.2222,-5.886,-2.9011,3.67,3.88,-6.06,
1999-01-15 09:30:43.890800,7.9541,-6.1708,-3.4504,0.1,0.52,-1.83,
1999-01-15 09:30:43.959700,6.9673,-5.9973,-3.5946,3.17,6.71,0.56,
1999-01-15 09:30:44.028700,7.1289,-5.792,-3.4977,1.68,1.47,-0.9,
1999-01-15 09:30:44.097600,7.4059,-5.9398,-3.381,0.93,3.12,-2.19,
1999-01-15 09:30:44.166600,7.4275,-5.9775,-3.2296,-2.3,0.86,-0.51,
1999-01-15 09:30:44.235500,7.5202,-5.8548,-3.3302,-2.11,2.0,0.28,
1999-01-15 09:30:44.304500,7.7315,-5.8261,-3.7915,-1.02,-2.36,2.02,
1999-01-15 09:30:44.373400,7.0122,-5.3522,-3.235,1.95,1.49,-1.82,
1999-01-15 09:30:44.442400,7.2976,-5.6448,-3.2224,-0.66,1.22,-3.39,
1999-01-15 09:30:44.511400,7.5567,-5.9763,-3.2182,-2.52,2.3,-3.84,
1999-01-15 09:30:44.580300,7.4735,-6.0242,-3.4893,-2.32,3.71,0.08,
1999-01-15 09:30:44.649300,7.1983,-5.9841,-4.1332,3.3,3.19,3.11,
1999-01-15 09:30:44.718200,7.2844,-5.5102,-3.2769,7.84,1.25,0.52,
1999-01-15 09:30:44.787200,7.6094,-5.4874,-3.0615,2.7,0.67,-0.38,
1999-01-15 09:30:44.856100,7.6136,-5.734,-3.6288,-0.84,1.57,1.46,
1999-01-15 09:30:44.925100,7.0822,-5.64,-3.0501,-1.57,3.47,0.34,
1999-01-15 09:30:44.994000,7.668,-6.0068,-3.4014,-3.18,2.62,2.0,
1999-01-15 09:30:45.063000,7.4646,-5.6933,-2.8448,-5.2,5.98,2.73,
1999-01-15 09:30:45.131900,7.5687,-5.9494,-3.5653,-6.65,7.67,7.07,
1999-01-15 09:30:45.200900,7.2019,-5.7005,-3.4253,-5.55,5.84,7.67,
1999-01-15 09:30:45.269800,7.5112,-5.8118,-3.746,-3.25,2.61,7.78,
1999-01-15 09:30:45.338800,7.2102,-5.7633,-3.7814,2.43,-0.13,7.06,
1999-01-15 09:30:45.407800,7.3269,-5.7585,-3.4666,6.15,-3.25,3.61,
1999-01-15 09:30:45.476700,7.1863,-5.9841,-3.5994,5.43,-5.09,4.16,
1999-01-15 09:30:45.545700,7.1899,-5.9099,-3.469,4.08,-8.12,1.52,
1999-01-15 09:30:45.614600,7.1666,-5.9261,-3.6,6.15,-5.08,-0.76,
1999-01-15 09:30:45.683600,6.9134,-5.9554,-3.7419,7.45,-6.33,-0.75,
1999-01-15 09:30:45.752500,7.1845,-5.8872,-3.3864,6.4,-9.45,-2.13,
1999-01-15 09:30:45.821500,7.0582,-6.0481,-3.5743,7.35,-5.15,-2.8,
1999-01-15 09:30:45.890400,7.0744,-6.0691,-3.5653,5.51,-3.62,-3.37,
1999-01-15 09:30:45.959400,6.935,-6.1558,-3.5348,5.01,0.11,-4.21,
1999-01-15 09:30:46.028300,7.1618,-6.1271,-3.4307,1.64,1.23,-3.05,
1999-01-15 09:30:46.097300,7.1839,-6.2181,-3.5929,-0.52,2.84,-0.62,
1999-01-15 09:30:46.166200,7.1576,-6.0547,-3.5587,-1.57,3.6,1.27,
1999-01-15 09:30:46.235200,7.1618,-6.0505,-3.6832,0.25,4.1,2.36,
1999-01-15 09:30:46.304200,7.1444,-5.9117,-3.5731,0.45,3.11,2.46,
1999-01-15 09:30:46.373100,7.2372,-5.871,-3.4911,-0.26,3.59,2.75,
1999-01-15 09:30:46.442100,7.2306,-6.0571,-3.8155,0.68,1.46,3.68,
1999-01-15 09:30:46.511000,7.0349,-5.9201,-3.7742,3.28,0.45,2.55,
1999-01-15 09:30:46.580000,6.9475,-5.6999,-3.1889,1.96,2.14,-1.78,
1999-01-15 09:30:46.648900,7.2288,-6.029,-3.3637,-3.88,2.62,-3.1,
1999-01-15 09:30:46.717900,7.2587,-6.2893,-3.8621,-5.14,1.44,-1.31,
1999-01-15 09:30:46.786800,7.0648,-6.1187,-3.8819,-2.38,1.03,0.36,
1999-01-15 09:30:46.855800,7.1941,-5.7645,-3.5073,-0.09,1.04,-0.61,
1999-01-15 09:30:46.924700,7.1516,-5.7681,-3.5569,-1.78,1.58,-0.29,
1999-01-15 09:30:46.993700,7.1175,-5.9458,-3.694,-3.31,0.83,-0.66,
1999-01-15 09:30:47.062700,7.1031,-6.0918,-3.7646,-0.76,1.65,-1.21,
1999-01-15 09:30:47.131600,7.2503,-6.0344,-3.8388,1.73,1.27,0.18,
1999-01-15 09:30:47.200600,7.1983,-5.792,-3.8992,3.47,0.45,0.46,
1999-01-15 09:30:47.269500,7.0433,-5.7005,-3.8825,3.96,0.07,-0.91,
1999-01-15 09:30:47.338500,6.9912,-5.862,-3.907,2.7,-0.32,-1.96,
1999-01-15 09:30:47.407400,7.0714,-5.9015,-3.606,2.15,-0.66,-2.66,
1999-01-15 09:30:47.476400,7.1839,-6.0565,-3.7508,3.09,1.82,-1.54,
1999-01-15 09:30:47.545300,7.2539,-5.9374,-3.5707,2.89,1.54,-0.36,
1999-01-15 09:30:47.614300,7.2312,-5.8513,-3.5653,1.51,4.1,0.18,
1999-01-15 09:30:47.683200,7.1492,-5.8758,-3.6988,-0.66,5.4,0.92,
1999-01-15 09:30:47.752200,7.2336,-5.9111,-3.8191,-0.58,4.89,1.49,
1999-01-15 09:30:47.821100,7.1797,-5.889,-3.8579,0.43,3.05,1.64,
1999-01-15 09:30:47.890100,7.2019,-5.7782,-3.7018,1.13,1.84,0.79,
1999-01-15 09:30:47.959100,7.1462,-5.7417,-3.6814,1.29,2.0,-0.58,
1999-01-15 09:30:48.028000,7.2599,-5.8794,-3.7873,1.08,0.82,-0.45,
1999-01-15 09:30:48.097000,7.1666,-5.8608,-3.6724,1.77,-0.99,-0.48,
1999-01-15 09:30:48.165900,7.3293,-5.9703,-3.7927,3.48,-0.79,-0.12,
1999-01-15 09:30:48.234900,7.1713,-5.7531,-3.5737,4.59,-0.29,-0.11,
1999-01-15 09:30:48.303800,7.1809,-5.8225,-3.5773,2.95,0.01,-0.5,
1999-01-15 09:30:48.372800,7.1977,-5.9213,-3.7808,3.15,0.96,-0.52,
1999-01-15 09:30:48.441700,7.136,-5.8034,-3.6724,3.09,0.48,-0.29,
1999-01-15 09:30:48.510700,7.3688,-5.8626,-3.5887,1.19,-0.63,-0.5,
1999-01-15 09:30:48.579600,7.0726,-5.8614,-3.6515,0.76,1.72,0.86,
1999-01-15 09:30:48.648600,7.2629,-5.9308,-3.7389,0.76,0.81,0.36,
1999-01-15 09:30:48.717500,7.3688,-5.9278,-3.8023,1.69,0.38,1.38,
1999-01-15 09:30:48.786500,7.093,-5.7022,-3.7018,1.71,0.41,0.98,
1999-01-15 09:30:48.855500,7.1636,-5.7675,-3.834,2.07,0.88,-0.14,
1999-01-15 09:30:48.924400,7.0989,-5.8124,-3.7395,1.93,-0.27,-1.8,
1999-01-15 09:30:48.993400,7.3365,-5.9428,-3.7999,2.15,-0.93,-1.28,
1999-01-15 09:30:49.062300,7.1091,-5.7788,-3.7173,2.98,-0.04,-0.73,
1999-01-15 09:30:49.131300,7.1432,-5.7962,-3.7682,2.85,-0.35,-0.98,
1999-01-15 09:30:49.200200,7.1007,-5.8626,-3.6539,2.52,0.79,-1.5,
1999-01-15 09:30:49.269200,7.2815,-6.0266,-3.8424,2.61,1.25,-0.47,
1999-01-15 09:30:49.338100,7.1223,-5.8435,-3.67,1.65,1.4,0.64,
1999-01-15 09:30:49.407100,7.2043,-5.865,-3.7628,2.23,3.35,0.63,
1999-01-15 09:30:49.476000,7.2336,-5.8997,-3.7209,-0.08,0.68,1.3,
1999-01-15 09:30:49.545000,7.2384,-5.8824,-3.8705,1.83,3.28,3.01,
1999-01-15 09:30:49.614000,7.1151,-5.7011,-3.7323,2.16,1.61,2.66,
1999-01-15 09:30:49.682900,7.1779,-5.9033,-3.7556,3.11,1.28,1.96,
1999-01-15 09:30:49.751900,7.154,-5.9165,-3.7377,3.56,1.14,1.58,
1999-01-15 09:30:49.820800,6.8626,-5.8794,-3.7616,5.08,1.81,0.15,
1999-01-15 09:30:49.889800,7.3263,-5.9015,-3.5522,4.39,0.46,-0.32,
1999-01-15 09:30:49.958700,7.1588,-6.0158,-3.5863,3.58,1.67,-0.44,
1999-01-15 09:30:50.027700,6.9852,-6.1379,-3.9357,3.39,2.26,0.35,
1999-01-15 09:30:50.096600,6.984,-5.9829,-3.6312,3.26,0.26,-0.17,
1999-01-15 09:30:50.165600,7.2916,-6.1175,-3.6976,2.86,0.47,0.76,
1999-01-15 09:30:50.234500,7.2324,-6.0224,-3.5982,1.13,-0.88,2.76,
1999-01-15 09:30:50.303500,6.8356,-6.0386,-3.5623,2.02,1.07,0.73,
1999-01-15 09:30:50.372400,7.2527,-6.0954,-3.6922,0.45,1.39,1.57,
1999-01-15 09:30:50.441400,7.1025,-5.9829,-3.5964,-0.49,1.23,1.6,
1999-01-15 09:30:50.510400,6.8901,-6.0924,-3.7113,-0.72,1.51,0.9,
1999-01-15 09:30:50.579300,7.1582,-6.1235,-3.6736,-1.35,0.94,1.12,
1999-01-15 09:30:50.648300,7.0499,-6.0481,-3.6724,-1.41,1.61,1.8,
1999-01-15 09:30:50.717200,6.9709,-6.0248,-3.8627,-0.32,1.69,1.98,
1999-01-15 09:30:50.786200,7.0343,-5.9021,-3.6419,0.12,0.67,0.88,
1999-01-15 09:30:50.855100,7.1366,-5.9841,-3.6371,-0.28,0.71,0.36,
1999-01-15 09:30:50.924100,7.0193,-6.0122,-3.6479,0.07,2.18,0.21,
1999-01-15 09:30:50.993000,7.0499,-6.0254,-3.7849,-0.53,2.39,0.54,
1999-01-15 09:30:51.062000,6.9565,-6.0182,-3.8322,-0.13,1.85,0.27,
1999-01-15 09:30:51.130900,7.0104,-6.038,-3.7945,-0.63,1.26,-0.08,
1999-01-15 09:30:51.199900,7.0146,-5.9931,-3.7843,-0.84,1.37,0.77,
1999-01-15 09:30:51.268900,7.1115,-5.9129,-3.7754,-0.91,2.17,0.39,
1999-01-15 09:30:51.337800,7.0307,-5.9596,-3.8083,-1.47,2.87,-0.28,
1999-01-15 09:30:51.406800,7.0128,-6.0158,-3.8998,-1.78,2.16,-0.26,
1999-01-15 09:30:51.475700,7.0523,-5.9356,-3.825,-1.68,2.65,-0.11,
1999-01-15 09:30:51.544700,7.1348,-6.008,-3.9268,-1.31,2.0,0.57,
1999-01-15 09:30:51.613600,7.0176,-5.8824,-3.8226,-0.35,3.08,0.58,
1999-01-15 09:30:51.682600,7.1983,-5.9075,-3.8861,0.15,2.64,0.22,
1999-01-15 09:30:51.751500,7.0259,-5.813,-3.8131,-0.28,2.46,-0.2,
1999-01-15 09:30:51.820500,7.0876,-5.8991,-3.837,-1.04,2.51,-1.15,
1999-01-15 09:30:51.889400,7.1594,-5.9033,-3.8657,-0.25,2.76,-1.13,
1999-01-15 09:30:51.958400,6.999,-5.9033,-3.8328,0.14,3.05,-1.0,
1999-01-15 09:30:52.027300,7.1737,-5.8728,-3.7837,-0.38,2.69,-0.69,
1999-01-15 09:30:52.096300,7.2545,-5.8907,-3.9728,-0.37,2.41,1.15,
1999-01-15 09:30:52.165300,6.9404,-5.6969,-3.7861,-0.88,2.7,0.34,
1999-01-15 09:30:52.234200,7.364,-5.9338,-4.0405,-0.13,2.28,0.16,
1999-01-15 09:30:52.303200,6.9428,-5.7747,-3.8179,-0.46,2.28,0.29,
1999-01-15 09:30:52.372100,7.2988,-5.88,-3.9848,-0.29,1.48,0.92,
1999-01-15 09:30:52.441100,7.136,-5.8165,-3.8669,0.34,1.65,0.84,
1999-01-15 09:30:52.510000,7.2019,-5.78,-3.8568,0.62,2.09,0.56,
1999-01-15 09:30:52.579000,7.1791,-5.7842,-3.9627,0.11,1.68,0.8,
1999-01-15 09:30:52.647900,7.1253,-5.7076,-3.8041,-0.02,1.53,0.77,
1999-01-15 09:30:52.716900,7.1953,-5.8285,-3.8945,0.18,1.71,0.21,
1999-01-15 09:30:52.785800,7.0947,-5.795,-3.9178,-0.17,2.34,0.32,
1999-01-15 09:30:52.854800,7.2767,-5.8674,-3.9722,0.42,2.47,0.23,
1999-01-15 09:30:52.923700,7.0672,-5.8028,-3.9513,-0.06,2.23,0.6,
1999-01-15 09:30:52.992700,7.2084,-5.7765,-3.9639,0.82,2.94,0.33,
1999-01-15 09:30:53.061700,7.1025,-5.707,-3.8442,-0.13,2.67,0.56,
1999-01-15 09:30:53.130600,7.3078,-5.8746,-3.9938,0.63,2.71,0.63,
1999-01-15 09:30:53.199600,7.1229,-5.7441,-3.8693,0.13,1.84,0.77,
1999-01-15 09:30:53.268500,7.2653,-5.7633,-3.8831,0.32,2.15,0.65,
1999-01-15 09:30:53.337500,7.0672,-5.6963,-3.8502,-0.19,2.43,0.8,
1999-01-15 09:30:53.406400,7.1773,-5.7669,-3.9184,0.15,2.73,0.43,
1999-01-15 09:30:53.475400,7.2372,-5.7669,-3.8747,0.38,2.43,0.49,
1999-01-15 09:30:53.544300,7.1516,-5.7058,-3.8436,0.55,2.81,0.57,
1999-01-15 09:30:53.613300,7.1115,-5.7417,-3.9034,-0.06,2.95,0.16,
1999-01-15 09:30:53.682200,7.2521,-5.7693,-3.995,0.41,2.9,0.98,
1999-01-15 09:30:53.751200,7.145,-5.7872,-3.9328,0.93,1.66,0.68,
1999-01-15 09:30:53.820200,7.2162,-5.8369,-3.9842,0.99,2.04,0.67,
1999-01-15 09:30:53.889100,7.057,-5.7262,-3.8304,0.1,2.28,0.8,
1999-01-15 09:30:53.958100,7.2587,-5.731,-3.8939,0.69,2.95,1.39,
1999-01-15 09:30:54.027000,7.1324,-5.7609,-3.8945,0.56,2.41,1.03,
1999-01-15 09:30:54.096000,7.1785,-5.7974,-3.9292,0.94,2.64,1.28,
1999-01-15 09:30:54.164900,7.1402,-5.8231,-3.9555,0.83,2.26,1.17,
1999-01-15 09:30:54.234900,7.1462,-5.8159,-3.9238,0.5,1.86,1.37,
1999-01-15 09:30:54.304100,7.1779,-5.8542,-3.9501,0.85,1.62,1.36,
1999-01-15 09:30:54.373300,7.1091,-5.6933,-3.7897,0.53,2.51,0.85,
1999-01-15 09:30:54.442400,7.2336,-5.804,-3.8998,0.31,2.8,0.74,
1999-01-15 09:30:54.511600,7.1654,-5.8949,-3.9746,0.6,1.93,-0.04,
1999-01-15 09:30:54.580800,7.0277,-5.8596,-3.9304,0.65,1.95,1.16,
1999-01-15 09:30:54.650000,7.2084,-5.8812,-3.9322,0.25,1.1,0.76,
1999-01-15 09:30:54.719200,7.0804,-5.801,-3.8747,1.47,1.95,1.39,
1999-01-15 09:30:54.788400,7.148,-5.8171,-3.8562,0.48,1.4,0.45,
1999-01-15 09:30:54.857600,7.0965,-5.8022,-3.8197,0.48,3.32,0.76,
1999-01-15 09:30:54.926800,7.0912,-5.8393,-3.8591,0.84,3.23,0.05,
1999-01-15 09:30:54.995900,7.2108,-5.8722,-3.9118,0.6,3.59,0.66,
1999-01-15 09:30:55.065100,6.9649,-5.8501,-3.9758,0.95,2.62,0.44,
1999-01-15 09:30:55.134300,7.2031,-5.7872,-3.8173,0.98,1.81,0.25,
1999-01-15 09:30:55.203500,7.1319,-5.8363,-3.8514,0.77,2.05,0.35,
1999-01-15 09:30:55.272700,7.1552,-5.8016,-3.7993,1.06,2.09,0.14,
1999-01-15 09:30:55.341900,7.2282,-5.8836,-3.9052,2.77,3.52,0.09,
1999-01-15 09:30:55.411100,7.0756,-5.7435,-3.7514,1.69,2.84,0.0,
1999-01-15 09:30:55.480300,7.2916,-5.8728,-3.9483,0.98,1.27,-0.79,
1999-01-15 09:30:55.549400,7.0696,-5.7106,-3.67,0.02,2.18,-0.83,
1999-01-15 09:30:55.618600,7.3084,-5.8602,-3.8556,-0.03,2.26,-0.35,
1999-01-15 09:30:55.687800,7.2545,-5.8189,-3.8214,-0.12,1.3,0.93,
1999-01-15 09:30:55.757000,7.1139,-5.7489,-3.7634,0.48,1.69,0.48,
1999-01-15 09:30:55.826200,7.2168,-5.7058,-3.8149,-0.39,2.22,0.93,
1999-01-15 09:30:55.895400,7.1534,-5.7405,-3.8083,-0.21,2.63,-0.02,
1999-01-15 09:30:55.964600,7.1618,-5.8142,-3.8639,0.57,2.85,-0.26,
1999-01-15 09:30:56.033800,7.1725,-5.8608,-3.8376,0.46,2.34,0.08,
1999-01-15 09:30:56.102900,7.2168,-5.8159,-3.8262,1.03,1.86,0.62,
1999-01-15 09:30:56.172100,7.2049,-5.6915,-3.7676,0.84,1.99,0.7,
1999-01-15 09:30:56.241300,7.1684,-5.6753,-3.8029,0.87,2.17,0.51,
1999-01-15 09:30:56.310500,7.1546,-5.7609,-3.8214,0.48,1.64,0.67,
1999-01-15 09:30:56.379700,7.2186,-5.862,-3.9142,0.85,2.17,0.94,
1999-01-15 09:30:56.448900,7.2575,-5.8471,-3.8591,0.8,1.6,0.63,
1999-01-15 09:30:56.518100,7.1324,-5.8159,-3.8262,0.72,1.78,0.94,
1999-01-15 09:30:56.587300,7.2737,-5.7382,-3.7969,1.04,2.35,0.82,
1999-01-15 09:30:56.656400,7.1684,-5.7585,-3.913,1.02,1.51,0.65,
1999-01-15 09:30:56.725600,7.2252,-5.8082,-3.8364,1.2,1.16,0.41,
1999-01-15 09:30:56.794800,7.1827,-5.7782,-3.7903,1.34,1.89,0.47,
1999-01-15 09:30:56.864000,7.2114,-5.7142,-3.7089,1.12,2.0,0.54,
1999-01-15 09:30:56.933200,7.2252,-5.7729,-3.7754,1.2,1.79,0.41,
1999-01-15 09:30:57.002400,7.154,-5.8124,-3.7915,1.7,2.12,0.2,
1999-01-15 09:30:57.071600,7.212,-5.8094,-3.8107,1.45,1.8,0.03,
1999-01-15 09:30:57.140800,7.2485,-5.8052,-3.7676,1.03,1.44,0.66,
1999-01-15 09:30:57.209900,7.1857,-5.8046,-3.7526,0.95,1.91,0.39,
1999-01-15 09:30:57.279100,7.1935,-5.8931,-3.8639,0.57,1.35,0.81,
1999-01-15 09:30:57.348300,7.0983,-5.795,-3.7586,0.46,1.83,1.46,
1999-01-15 09:30:57.417500,7.312,-5.8776,-3.9148,0.62,2.02,0.68,
1999-01-15 09:30:57.486700,7.1295,-5.8459,-3.8035,0.15,1.59,1.01,
1999-01-15 09:30:57.555900,7.2204,-5.8375,-3.7484,0.2,2.24,1.19,
1999-01-15 09:30:57.625100,7.1426,-5.8165,-3.8568,0.49,2.01,1.78,
1999-01-15 09:30:57.694300,7.1983,-5.795,-3.7778,0.58,2.14,0.78,
1999-01-15 09:30:57.763400,7.1247,-5.801,-3.7466,0.22,2.58,0.6,
1999-01-15 09:30:57.832600,7.2623,-5.8734,-3.7969,0.32,2.86,0.59,
1999-01-15 09:30:57.901800,7.1456,-5.8423,-3.8615,0.8,2.57,1.5,
1999-01-15 09:30:57.971000,7.1528,-5.7908,-3.7724,0.97,1.4,1.53,
1999-01-15 09:30:58.040200,7.1223,-5.7741,-3.7269,1.76,1.19,0.95,
1999-01-15 09:30:58.109400,7.1899,-5.8459,-3.8131,2.11,1.44,0.5,
1999-01-15 09:30:58.178600,7.1666,-5.8674,-3.8041,1.77,0.07,1.34,
1999-01-15 09:30:58.247800,7.133,-5.8279,-3.7257,2.42,1.07,-0.11,
1999-01-15 09:30:58.317000,7.0373,-5.9626,-3.7347,1.58,1.15,-0.67,
1999-01-15 09:30:58.386100,7.1911,-6.0655,-3.898,1.57,2.0,0.61,
1999-01-15 09:30:58.455300,6.695,-6.1672,-3.8956,3.55,1.35,0.63,
1999-01-15 09:30:58.524500,7.4604,-6.014,-3.7676,5.17,2.29,1.64,
1999-01-15 09:30:58.593700,6.9128,-5.6981,-3.536,2.76,2.74,2.98,
1999-01-15 09:30:58.662900,7.1821,-5.8315,-3.7496,1.86,3.19,1.2,
1999-01-15 09:30:58.732100,6.9487,-5.9416,-3.7233,0.77,3.13,0.26,
1999-01-15 09:30:58.801300,7.1366,-6.0296,-3.767,0.93,3.09,-0.38,
1999-01-15 09:30:58.870500,7.1366,-6.0134,-3.7233,0.05,1.57,0.89,
1999-01-15 09:30:58.939600,7.0774,-5.9027,-3.67,0.6,3.23,0.8,
1999-01-15 09:30:59.008800,6.9583,-6.0278,-3.7897,-0.38,1.9,0.57,
1999-01-15 09:30:59.078000,7.2144,-5.9973,-3.6144,0.36,2.54,0.12,
1999-01-15 09:30:59.147200,7.0786,-5.947,-3.7209,0.39,3.64,0.76,
1999-01-15 09:30:59.216400,7.0499,-5.9057,-3.7137,-0.56,3.05,1.04,
1999-01-15 09:30:59.285600,7.0936,-6.026,-3.7879,-0.11,2.3,0.11,
1999-01-15 09:30:59.354800,7.1366,-6.0374,-3.7664,-0.14,1.85,0.74,
1999-01-15 09:30:59.424000,7.1181,-5.9261,-3.5893,-0.54,2.28,-0.05,
1999-01-15 09:30:59.493100,7.0457,-6.0015,-3.7939,-0.91,2.88,0.48,
1999-01-15 09:30:59.562300,7.166,-5.9267,-3.7437,-1.85,1.63,0.46,
1999-01-15 09:30:59.631500,6.9242,-5.9931,-3.8597,-0.68,2.35,0.38,
1999-01-15 09:30:59.700700,7.2324,-5.8848,-3.6036,-0.78,1.63,-0.49,
1999-01-15 09:30:59.769900,7.1869,-5.932,-3.7215,-0.7,2.09,0.97,
1999-01-15 09:30:59.839100,7.0182,-5.9015,-3.8089,1.03,2.22,0.38,
1999-01-15 09:30:59.908300,7.3233,-5.7531,-3.5803,-0.44,1.64,0.68,
1999-01-15 09:30:59.977500,7.0307,-5.9111,-3.7544,0.03,2.82,0.01,
1999-01-15 09:31:00.046600,7.0588,-5.9296,-3.7048,0.42,3.52,0.11,
1999-01-15 09:31:00.115800,7.2575,-5.9117,-3.8208,-0.25,2.98,1.09,
1999-01-15 09:31:00.185000,7.2491,-5.8219,-3.8274,1.01,2.52,0.71,
1999-01-15 09:31:00.254200,7.0648,-5.801,-3.7089,0.8,2.14,-0.02,
1999-01-15 09:31:00.323400,7.315,-5.8794,-3.7688,-0.46,2.32,0.51,
1999-01-15 09:31:00.392600,7.0205,-5.8447,-3.7383,-0.31,2.7,0.42,
1999-01-15 09:31:00.461800,7.2731,-5.9554,-3.837,0.07,2.31,0.66,
1999-01-15 09:31:00.531000,7.1372,-5.8704,-3.7245,-0.25,2.17,1.59,
1999-01-15 09:31:00.600100,7.1761,-5.9033,-3.8454,0.11,1.94,1.93,
1999-01-15 09:31:00.669300,7.0906,-5.8369,-3.7341,0.68,1.58,1.32,
1999-01-15 09:31:00.738500,7.236,-5.8979,-3.8059,0.52,1.48,1.3,
1999-01-15 09:31:00.807700,7.1061,-5.7872,-3.8005,0.22,1.79,1.57,
1999-01-15 09:31:00.876900,7.1414,-5.9422,-3.8496,0.52,0.84,0.6,
1999-01-15 09:31:00.946100,7.0271,-5.8919,-3.6689,0.24,1.09,1.78,
1999-01-15 09:31:01.015300,7.1067,-5.9392,-3.8693,0.22,2.05,1.24,
1999-01-15 09:31:01.084500,7.075,-5.9057,-3.8448,0.32,2.6,2.06,
1999-01-15 09:31:01.153600,7.1193,-5.9135,-3.8454,0.24,2.03,1.49,
1999-01-15 09:31:01.222800,7.0971,-5.9027,-3.7676,-0.09,3.19,1.71,
1999-01-15 09:31:01.292000,7.0397,-5.9261,-3.8101,-0.57,2.87,0.74,
1999-01-15 09:31:01.361200,7.0852,-5.9703,-3.8484,-0.79,3.55,1.37,
1999-01-15 09:31:01.430400,7.1492,-5.9703,-3.9058,-0.25,3.01,1.01,
1999-01-15 09:31:01.499600,6.9206,-5.804,-3.8167,-0.2,2.45,0.71,
1999-01-15 09:31:01.568800,7.1127,-5.874,-3.7532,-0.51,2.39,-0.11,
1999-01-15 09:31:01.638000,7.1133,-5.9087,-3.831,0.02,2.51,-0.06,
1999-01-15 09:31:01.707100,6.8961,-6.1409,-4.05,1.5,0.9,0.04,
1999-01-15 09:31:01.776300,7.1839,-5.7705,-3.4498,2.5,1.3,-0.23,
1999-01-15 09:31:01.845500,7.2461,-5.7178,-3.6491,0.18,2.12,-0.06,
1999-01-15 09:31:01.914700,6.9404,-5.5413,-3.6347,-1.3,4.23,-2.47,
1999-01-15 09:31:01.983900,7.2946,-5.7998,-3.8113,-2.66,3.91,-5.35,
1999-01-15 09:31:02.053100,7.2761,-5.8255,-3.9525,-2.07,3.32,-5.72,
1999-01-15 09:31:02.122300,7.2067,-5.7507,-3.8364,-2.56,2.95,-6.42,
1999-01-15 09:31:02.191500,7.3084,-5.7166,-3.9094,-6.68,1.72,-5.6,
1999-01-15 09:31:02.260700,7.1791,-5.5658,-3.3032,-8.6,3.72,-5.61,
1999-01-15 09:31:02.329800,7.4999,-5.8118,-3.5312,-12.56,5.92,-3.49,
1999-01-15 09:31:02.399000,7.522,-5.795,-3.5617,-14.6,9.12,1.18,
1999-01-15 09:31:02.468200,7.6465,-5.7094,-3.7239,-13.7,11.87,5.22,
1999-01-15 09:31:02.537400,7.145,-5.5084,-3.767,-12.03,12.6,9.39,
1999-01-15 09:31:02.606600,7.6058,-5.4372,-3.8232,-8.57,12.65,10.13,
1999-01-15 09:31:02.675800,7.5531,-5.2941,-3.9028,-5.3,11.19,9.52,
1999-01-15 09:31:02.745000,7.0606,-5.254,-3.9124,-3.47,8.11,8.16,
1999-01-15 09:31:02.814200,7.7787,-5.3665,-3.8663,-0.38,3.01,1.96,
1999-01-15 09:31:02.883300,6.9888,-5.0051,-3.3541,3.51,6.76,-1.08,
1999-01-15 09:31:02.952500,7.5232,-5.2044,-3.3673,0.65,3.77,-7.29,
1999-01-15 09:31:03.021700,7.8924,-5.6436,-3.9746,-0.74,6.5,-4.12,
1999-01-15 09:31:03.090900,7.4706,-5.6179,-4.2571,0.2,5.61,-1.55,
1999-01-15 09:31:03.160100,7.811,-5.4378,-3.8472,0.03,8.71,0.21,
1999-01-15 09:31:03.229300,7.1187,-5.4419,-3.7131,-5.72,5.88,2.14,
1999-01-15 09:31:03.298500,7.586,-5.4683,-4.3427,-4.8,3.53,4.46,
1999-01-15 09:31:03.367700,7.0726,-5.4126,-4.3097,3.69,1.37,0.5,
1999-01-15 09:31:03.436800,7.1289,-5.129,-3.0992,4.4,0.32,-6.5,
1999-01-15 09:31:03.506000,7.315,-5.2834,-3.1991,1.59,8.43,-6.46,
1999-01-15 09:31:03.575200,8.3879,-6.2043,-4.5928,-8.18,-2.37,-1.69,
1999-01-15 09:31:03.644400,5.8243,-5.6945,-3.4014,7.65,13.35,-7.79,
1999-01-15 09:31:03.713600,8.6883,-5.9045,-3.6168,1.86,2.32,-9.0,
1999-01-15 09:31:03.782800,8.5716,-5.2516,-4.1931,4.03,5.73,0.36,
1999-01-15 09:31:03.852000,6.9104,-3.9681,-3.1351,-0.33,10.84,0.74,
1999-01-15 09:31:03.921200,7.7333,-4.518,-3.7646,-7.7,4.6,-4.64,
1999-01-15 09:31:03.990300,8.0797,-4.6664,-2.7545,-4.44,6.22,-13.17,
1999-01-15 09:31:04.059500,8.8265,-5.0254,-2.9418,-3.77,9.95,-9.74,
1999-01-15 09:31:04.128700,8.9738,-4.8621,-2.5744,-7.6,9.92,-2.09,
1999-01-15 09:31:04.197900,8.8924,-4.5826,-2.9932,-13.17,9.21,9.78,
1999-01-15 09:31:04.267100,9.0617,-4.4875,-3.6347,-8.51,7.67,12.16,
1999-01-15 09:31:04.336300,8.0169,-3.7024,-2.5498,-10.18,1.42,8.15,
1999-01-15 09:31:04.405500,8.3359,-4.1649,-3.4875,-6.38,4.34,5.26,
1999-01-15 09:31:04.474700,8.0289,-4.2577,-3.2727,-3.97,-0.76,0.78,
1999-01-15 09:31:04.543800,7.9343,-4.2433,-2.7437,-4.13,-2.71,-0.38,
1999-01-15 09:31:04.613000,8.3921,-4.8657,-3.6066,-4.27,-9.41,1.3,
1999-01-15 09:31:04.682200,8.9654,-4.8214,-4.4564,8.42,-12.99,6.11,
1999-01-15 09:31:04.751400,8.0959,-3.8412,-3.7,20.05,-8.5,6.13,
1999-01-15 09:31:04.820600,8.1258,-3.6766,-3.5198,15.6,-0.29,8.43,
1999-01-15 09:31:04.889800,7.0654,-4.3301,-3.6407,4.41,10.2,7.36,
1999-01-15 09:31:04.959000,8.3179,-5.1691,-3.7508,-12.36,13.47,3.46,
1999-01-15 09:31:05.028200,8.4154,-5.0895,-4.5856,-22.98,19.64,17.7,
1999-01-15 09:31:05.097300,6.5885,-4.5599,-4.7586,-20.5,19.22,22.07,
1999-01-15 09:31:05.166500,7.9074,-3.9902,-4.442,-17.51,14.45,15.49,
1999-01-15 09:31:05.235700,7.9098,-3.8729,-4.9016,-17.4,14.14,11.49,
1999-01-15 09:31:05.304900,6.4874,-2.5385,-3.3834,-21.96,22.1,4.9,
1999-01-15 09:31:05.374100,7.4466,-4.2517,-5.6645,-36.0,4.41,-0.03,
1999-01-15 09:31:05.443300,7.6112,-4.4462,-3.779,-27.06,1.02,-13.08,
1999-01-15 09:31:05.512500,9.0659,-6.0086,-4.2846,-22.96,-3.77,-26.39,
1999-01-15 09:31:05.581700,8.4519,-6.4138,-2.2734,-17.16,9.42,-32.17,
1999-01-15 09:31:05.650800,9.7104,-7.4855,-3.9854,-19.66,10.39,-8.5,
1999-01-15 09:31:05.720000,6.6352,-5.932,-2.6952,-18.62,15.36,17.06,
1999-01-15 09:31:05.789200,7.9822,-6.2145,-4.8226,-4.78,8.5,28.27,
1999-01-15 09:31:05.858400,6.5699,-4.9435,-3.3355,12.99,5.07,22.96,
1999-01-15 09:31:05.927600,8.5435,-5.4545,-4.1218,22.86,0.94,11.39,
1999-01-15 09:31:05.996800,6.8518,-4.5772,-2.9424,19.01,4.86,9.35,
1999-01-15 09:31:06.066000,6.9691,-4.5276,-3.1207,2.69,0.01,5.9,
1999-01-15 09:31:06.135200,7.1977,-5.4431,-3.4588,-9.28,-8.27,-5.82,
1999-01-15 09:31:06.204400,8.592,-5.5383,-3.5516,-5.37,3.23,-7.34,
1999-01-15 09:31:06.273500,7.5878,-5.2642,-3.8562,-17.9,-7.73,2.75,
1999-01-15 09:31:06.342700,7.2767,-4.8752,-4.9088,-11.76,-9.1,6.57,
1999-01-15 09:31:06.411900,8.2551,-4.4061,-5.2917,-1.26,-20.7,3.67,
1999-01-15 09:31:06.481100,7.4622,-4.0004,-4.8663,9.28,-15.5,-5.75,
1999-01-15 09:31:06.550300,7.4035,-4.5114,-4.6335,7.95,-9.43,-11.29,
1999-01-15 09:31:06.619500,6.7166,-4.9973,-4.4462,-3.83,-7.67,-8.18,
1999-01-15 09:31:06.688700,7.0624,-5.804,-5.5096,-8.48,-4.36,-1.86,
1999-01-15 09:31:06.757900,7.2222,-5.4234,-5.3833,-4.64,0.13,6.26,
1999-01-15 09:31:06.827000,7.1881,-5.0033,-5.4018,0.61,1.16,12.46,
1999-01-15 09:31:06.896200,7.163,-4.6706,-5.4336,6.51,-3.17,14.4,
1999-01-15 09:31:06.965400,6.8871,-4.4276,-5.506,16.4,-2.27,11.17,
1999-01-15 09:31:07.034600,6.932,-4.0554,-4.8483,18.06,-7.17,3.36,
1999-01-15 09:31:07.103800,6.9386,-4.5401,-4.5641,15.27,-7.52,-3.96,
1999-01-15 09:31:07.173000,7.1157,-5.3635,-5.0769,15.13,-10.6,-7.44,
1999-01-15 09:31:07.242200,7.1833,-5.3079,-4.457,15.32,-12.92,-8.37,
1999-01-15 09:31:07.311400,7.1516,-5.5419,-4.7873,20.24,-6.14,-9.49,
1999-01-15 09:31:07.380500,7.1989,-5.3001,-4.0417,17.26,-2.85,-8.1,
1999-01-15 09:31:07.449700,7.2874,-5.4731,-4.2882,7.62,-0.36,-1.86,
1999-01-15 09:31:07.518900,6.8937,-5.6711,-4.7215,5.08,3.14,0.66,
1999-01-15 09:31:07.588100,7.2533,-5.64,-4.7274,3.75,1.78,1.86,
1999-01-15 09:31:07.657300,7.3491,-5.3354,-4.6562,3.71,4.3,4.45,
1999-01-15 09:31:07.726500,6.8907,-5.1798,-4.734,0.34,2.28,4.8,
1999-01-15 09:31:07.795700,6.9954,-5.2205,-4.8944,1.33,0.62,3.31,
1999-01-15 09:31:07.864900,6.9571,-5.1212,-4.6951,4.03,-1.03,-0.12,
1999-01-15 09:31:07.934000,6.9326,-5.3306,-4.6838,4.53,-2.21,-1.74,
1999-01-15 09:31:08.003200,7.0415,-5.5736,-4.7137,5.75,-4.04,-3.14,
1999-01-15 09:31:08.072400,6.8961,-5.6095,-4.6562,8.51,-3.52,-2.7,
1999-01-15 09:31:08.141600,6.9481,-5.5102,-4.5898,9.57,-3.41,-1.43,
1999-01-15 09:31:08.210800,7.0864,-5.3588,-4.5162,10.37,-3.26,0.07,
1999-01-15 09:31:08.280000,7.0762,-5.3725,-4.5503,8.32,-3.61,-0.32,
1999-01-15 09:31:08.349200,6.7525,-5.5431,-4.6072,7.23,-1.06,-0.62,
1999-01-15 09:31:08.418400,6.7297,-5.704,-4.6215,7.13,-1.03,-2.21,
1999-01-15 09:31:08.487500,7.0594,-5.6909,-4.6209,5.69,-0.95,-0.57,
1999-01-15 09:31:08.556700,6.8859,-5.6137,-4.6814,4.2,-0.9,1.07,
1999-01-15 09:31:08.625900,6.6328,-5.5514,-4.7735,3.6,-1.62,1.09,
1999-01-15 09:31:08.695100,6.8817,-5.6268,-4.6604,3.44,-3.58,-0.88,
1999-01-15 09:31:08.764300,6.759,-5.7052,-4.6461,4.78,-2.52,-0.87,
1999-01-15 09:31:08.833500,6.8907,-5.7872,-4.7143,5.74,-3.18,-0.55,
1999-01-15 09:31:08.902700,6.683,-5.6406,-4.4217,5.48,-1.9,-0.22,
1999-01-15 09:31:08.971900,6.9655,-5.6616,-4.4474,3.05,-0.46,0.23,
1999-01-15 09:31:09.041000,6.8117,-5.7561,-4.6963,1.73,2.02,1.16,
1999-01-15 09:31:09.110200,6.5418,-5.6975,-4.6443,0.73,2.89,0.6,
1999-01-15 09:31:09.179400,6.698,-5.7896,-4.7532,-1.42,1.71,0.36,
1999-01-15 09:31:09.248600,6.777,-5.78,-4.7753,0.03,2.97,-0.57,
1999-01-15 09:31:09.317800,6.8476,-5.6508,-4.7113,-1.53,2.62,0.27,
1999-01-15 09:31:09.387000,6.6316,-5.5826,-4.7221,-2.13,3.35,-0.04,
1999-01-15 09:31:09.456200,6.7076,-5.7202,-4.7807,-3.32,2.21,-0.44,
1999-01-15 09:31:09.525400,6.8039,-5.8309,-4.8286,-2.23,3.68,-0.46,
1999-01-15 09:31:09.594500,6.7178,-5.6328,-4.7777,-2.64,3.24,0.79,
1999-01-15 09:31:09.663700,6.7118,-5.5185,-4.7227,-2.22,3.28,0.71,
1999-01-15 09:31:09.732900,6.768,-5.5503,-4.6209,-2.7,4.04,0.16,
1999-01-15 09:31:09.802100,6.9691,-5.6693,-4.9088,-3.21,4.59,1.03,
1999-01-15 09:31:09.871300,6.6759,-5.5263,-4.8112,-1.73,5.88,1.14,
1999-01-15 09:31:09.940500,6.7291,-5.5957,-4.9165,-1.4,4.53,0.11,
1999-01-15 09:31:10.009700,6.8063,-5.561,-4.8435,-1.51,3.72,0.18,
1999-01-15 09:31:10.078900,6.9362,-5.6484,-5.0739,0.25,2.3,0.62,
1999-01-15 09:31:10.148100,6.7028,-5.4216,-4.7502,1.26,0.6,-0.59,
1999-01-15 09:31:10.217200,6.9697,-5.5544,-4.7909,0.85,-0.12,-0.71,
1999-01-15 09:31:10.286400,6.6771,-5.5556,-4.6861,1.86,0.33,-0.58,
1999-01-15 09:31:10.355600,7.0876,-5.5598,-4.667,1.93,0.58,0.12,
1999-01-15 09:31:10.424800,6.8105,-5.4725,-4.5701,1.35,1.76,1.1,
1999-01-15 09:31:10.494000,6.9463,-5.5179,-4.7657,1.72,2.51,0.96,
1999-01-15 09:31:10.563200,6.7698,-5.4258,-4.67,0.46,3.39,1.2,
1999-01-15 09:31:10.632400,6.8219,-5.5556,-4.7771,-0.82,3.3,0.46,
1999-01-15 09:31:10.701600,6.844,-5.6077,-4.7209,-1.28,3.56,0.84,
1999-01-15 09:31:10.770700,6.9469,-5.5209,-4.7819,-1.05,4.49,2.23,
1999-01-15 09:31:10.839900,6.8003,-5.4204,-4.5922,-1.57,2.97,1.67,
1999-01-15 09:31:10.909100,7.0894,-5.5802,-4.7717,-1.27,4.08,2.07,
1999-01-15 09:31:10.978300,6.7626,-5.4641,-4.6993,-1.26,3.59,2.46,
1999-01-15 09:31:11.047500,6.9086,-5.5844,-4.8717,-0.66,3.94,1.99,
1999-01-15 09:31:11.116700,6.841,-5.5616,-4.7125,-1.41,2.99,2.49,
1999-01-15 09:31:11.185900,6.7746,-5.5341,-4.7669,-1.12,3.59,2.42,
1999-01-15 09:31:11.255100,6.8243,-5.506,-4.7873,-1.17,3.76,2.02,
1999-01-15 09:31:11.324200,6.7764,-5.5748,-4.7328,-1.16,3.03,1.05,
1999-01-15 09:31:11.393400,6.8458,-5.5993,-4.7472,-0.92,3.89,0.98,
1999-01-15 09:31:11.462600,6.8973,-5.6119,-4.8124,-1.19,3.63,1.16,
1999-01-15 09:31:11.531800,6.7387,-5.5909,-4.7801,-0.74,2.56,0.98,
1999-01-15 09:31:11.601000,6.9463,-5.5981,-4.7843,0.11,3.46,0.82,
1999-01-15 09:31:11.670200,6.7195,-5.4928,-4.6634,-0.95,2.63,1.65,
1999-01-15 09:31:11.739400,6.8608,-5.5401,-4.7651,-0.39,2.44,1.16,
1999-01-15 09:31:11.808600,6.8267,-5.5784,-4.7538,-0.74,1.92,1.74,
1999-01-15 09:31:11.877700,6.8943,-5.5419,-4.7478,-0.2,2.43,1.45,
1999-01-15 09:31:11.946900,6.8075,-5.5299,-4.7466,0.38,2.0,1.5,
1999-01-15 09:31:12.016100,6.8769,-5.5096,-4.7005,0.6,2.06,0.69,
1999-01-15 09:31:12.085300,6.8356,-5.6137,-4.7777,0.19,2.21,0.71,
1999-01-15 09:31:12.154500,6.71,-5.5754,-4.7496,0.11,2.27,0.39,
1999-01-15 09:31:12.223700,6.9822,-5.6023,-4.8196,0.92,2.27,0.78,
1999-01-15 09:31:12.292900,6.7537,-5.5215,-4.7143,1.09,1.12,0.75,
1999-01-15 09:31:12.362100,6.9434,-5.5993,-4.7274,0.68,1.62,0.28,
1999-01-15 09:31:12.431200,6.7231,-5.494,-4.6742,0.12,1.93,1.15,
1999-01-15 09:31:12.500400,6.7345,-5.5538,-4.734,0.24,2.81,0.56,
1999-01-15 09:31:12.569600,6.8739,-5.6035,-4.734,-0.43,2.77,0.29,
1999-01-15 09:31:12.638800,6.8751,-5.6681,-4.8579,-0.09,2.38,1.16,
1999-01-15 09:31:12.708000,6.7477,-5.5676,-4.7478,0.37,2.37,0.59,
1999-01-15 09:31:12.777200,6.7692,-5.6155,-4.7921,0.21,2.68,0.28,
1999-01-15 09:31:12.846400,6.8338,-5.6897,-4.8453,0.22,2.28,0.4,
1999-01-15 09:31:12.915600,6.8919,-5.6879,-4.8818,0.66,1.65,0.78,
1999-01-15 09:31:12.984700,6.8093,-5.5383,-4.7406,0.6,0.84,0.84,
1999-01-15 09:31:13.053900,6.7644,-5.5221,-4.7472,-0.43,1.23,1.72,
1999-01-15 09:31:13.123100,6.8362,-5.5897,-4.8453,-0.46,1.5,0.96,
1999-01-15 09:31:13.192300,6.8297,-5.5556,-4.8058,0.32,2.26,1.24,
1999-01-15 09:31:13.261500,6.8201,-5.5395,-4.7609,-0.24,1.67,1.02,
1999-01-15 09:31:13.330700,6.8201,-5.5221,-4.7053,-0.28,2.36,0.95,
1999-01-15 09:31:13.399900,6.841,-5.5437,-4.8148,-0.2,3.2,1.14,
1999-01-15 09:31:13.469100,6.7237,-5.558,-4.8519,-0.41,2.53,0.65,
1999-01-15 09:31:13.538200,6.832,-5.5844,-4.8184,-0.3,2.16,0.59,
1999-01-15 09:31:13.607400,6.7908,-5.6065,-4.8411,0.38,2.07,0.64,
1999-01-15 09:31:13.676600,6.7937,-5.5987,-4.8136,0.29,1.8,0.68,
1999-01-15 09:31:13.745800,6.8279,-5.561,-4.8441,0.74,1.31,1.2,
1999-01-15 09:31:13.815000,6.8033,-5.5443,-4.7191,0.66,1.28,-0.36,
1999-01-15 09:31:13.884200,6.7429,-5.5712,-4.7574,0.57,2.41,0.29,
1999-01-15 09:31:13.953400,6.9248,-5.5814,-4.8352,0.7,2.12,-0.03,
1999-01-15 09:31:14.022600,6.7441,-5.4497,-4.7101,1.17,2.44,0.78,
1999-01-15 09:31:14.091700,6.8608,-5.5137,-4.7604,0.49,2.34,0.07,
1999-01-15 09:31:14.160900,6.832,-5.5137,-4.7107,0.02,3.19,0.87,
1999-01-15 09:31:14.230100,6.8566,-5.5622,-4.8358,-0.2,2.83,0.78,
1999-01-15 09:31:14.299300,6.8626,-5.5281,-4.822,-0.15,1.89,2.06,
1999-01-15 09:31:14.368500,6.7566,-5.4898,-4.7735,0.45,1.68,1.58,
1999-01-15 09:31:14.437700,6.8003,-5.5832,-4.8477,0.34,1.84,1.44,
1999-01-15 09:31:14.507900,6.841,-5.5616,-4.8322,0.36,1.93,1.1,
1999-01-15 09:31:14.577100,6.7914,-5.5526,-4.7568,0.44,2.41,0.68,
1999-01-15 09:31:14.646300,6.6693,-5.5862,-4.7921,0.52,3.09,-0.07,
1999-01-15 09:31:14.715500,6.9134,-5.6825,-4.9494,1.15,3.32,0.4,
1999-01-15 09:31:14.784700,6.6992,-5.5718,-4.8088,1.51,1.41,0.94,
1999-01-15 09:31:14.853900,6.8189,-5.5209,-4.6413,0.99,1.8,1.43,
1999-01-15 09:31:14.923200,6.7728,-5.5497,-4.6832,0.04,2.05,1.14,
1999-01-15 09:31:14.992400,6.8554,-5.6071,-4.7478,0.11,3.04,1.64,
1999-01-15 09:31:15.061600,6.7955,-5.5808,-4.8178,-0.13,2.48,1.04,
1999-01-15 09:31:15.130800,6.8081,-5.5718,-4.7957,0.12,2.52,0.89,
1999-01-15 09:31:15.200000,6.6998,-5.6394,-4.8495,0.37,2.53,0.5,
1999-01-15 09:31:15.269200,6.8853,-5.6687,-4.8052,0.66,2.13,0.75,
1999-01-15 09:31:15.338400,6.7303,-5.6364,-4.7992,0.52,1.44,1.12,
1999-01-15 09:31:15.407600,6.8045,-5.6185,-4.6682,-0.02,2.42,0.47,
1999-01-15 09:31:15.476900,6.8554,-5.5868,-4.7023,-1.24,3.19,0.66,
1999-01-15 09:31:15.546100,6.6346,-5.5395,-4.7771,-1.93,4.08,1.09,
1999-01-15 09:31:15.615300,6.9475,-5.6418,-4.8166,-1.94,3.39,0.36,
1999-01-15 09:31:15.684500,6.768,-5.5945,-4.7011,-3.08,3.87,0.97,
1999-01-15 09:31:15.753700,6.853,-5.6065,-4.7747,-2.9,5.13,1.82,
1999-01-15 09:31:15.822900,6.786,-5.4796,-4.6401,-3.67,6.31,2.24,
1999-01-15 09:31:15.892100,6.9248,-5.5024,-4.5204,-5.45,8.02,2.51,
1999-01-15 09:31:15.961400,6.9128,-5.6819,-4.5521,-8.72,9.45,4.35,
1999-01-15 09:31:16.030600,6.9816,-5.7627,-4.7514,-10.33,11.94,6.77,
1999-01-15 09:31:16.099800,6.7632,-5.5658,-4.603,-12.42,13.31,9.05,
1999-01-15 09:31:16.169000,7.0373,-5.5293,-4.7095,-13.49,14.81,10.27,
1999-01-15 09:31:16.238200,6.8231,-5.4874,-4.5234,-16.09,16.49,12.06,
1999-01-15 09:31:16.307400,6.9733,-5.5891,-4.6311,-17.89,17.2,12.18,
1999-01-15 09:31:16.376600,6.9942,-5.5413,-4.6,-17.6,18.14,12.68,
1999-01-15 09:31:16.445800,6.9721,-5.3821,-4.5844,-16.7,18.1,12.2,
1999-01-15 09:31:16.515100,7.0062,-5.4449,-4.8926,-15.42,17.08,10.59,
1999-01-15 09:31:16.584300,6.7243,-5.336,-4.9949,-12.7,15.54,9.58,
1999-01-15 09:31:16.653500,6.8111,-5.421,-4.877,-11.71,10.99,6.7,
1999-01-15 09:31:16.722700,7.0056,-5.6556,-4.8806,-9.88,8.73,6.39,
1999-01-15 09:31:16.791900,6.838,-5.5718,-4.685,-7.51,6.63,6.02,
1999-01-15 09:31:16.861100,6.9439,-5.5413,-4.7819,-4.25,6.68,5.94,
1999-01-15 09:31:16.930300,6.8991,-5.4072,-4.6742,-3.1,6.52,4.63,
1999-01-15 09:31:16.999600,6.7698,-5.5281,-4.8196,-2.8,5.71,3.37,
1999-01-15 09:31:17.068800,6.8937,-5.5718,-4.6945,-2.24,4.83,2.2,
1999-01-15 09:31:17.138000,6.8931,-5.6155,-4.7939,-1.04,4.54,2.3,
1999-01-15 09:31:17.207200,6.8524,-5.5179,-4.7137,0.2,3.43,1.36,
1999-01-15 09:31:17.276400,6.914,-5.5006,-4.7173,0.85,2.73,0.81,
1999-01-15 09:31:17.345600,6.8428,-5.4934,-4.6508,0.59,1.92,-0.17,
1999-01-15 09:31:17.414800,6.8267,-5.6089,-4.576,0.15,1.56,-1.61,
1999-01-15 09:31:17.484000,7.0307,-5.6514,-4.6574,0.5,2.64,-0.14,
1999-01-15 09:31:17.553300,6.8057,-5.5796,-4.7179,1.07,1.24,0.16,
1999-01-15 09:31:17.622500,6.9918,-5.5048,-4.6323,1.14,-0.03,-0.11,
1999-01-15 09:31:17.691700,6.8033,-5.5072,-4.6856,1.23,0.32,-0.45,
1999-01-15 09:31:17.760900,6.8309,-5.5078,-4.6353,1.64,0.24,-1.48,
1999-01-15 09:31:17.830100,7.0152,-5.5891,-4.6975,1.7,-0.16,-1.69,
1999-01-15 09:31:17.899300,6.8883,-5.5736,-4.7615,2.74,-0.25,-1.33,
1999-01-15 09:31:17.968500,6.8398,-5.5245,-4.7454,3.02,-1.0,-1.92,
1999-01-15 09:31:18.037800,6.9326,-5.4916,-4.7687,3.64,-0.28,-2.01,
1999-01-15 09:31:18.107000,6.8506,-5.4318,-4.7903,4.52,-1.35,-2.72,
1999-01-15 09:31:18.176200,7.005,-5.4348,-4.6634,4.24,-2.0,-3.2,
1999-01-15 09:31:18.245400,6.9607,-5.4288,-4.6131,4.25,-1.31,-2.93,
1999-01-15 09:31:18.314600,6.9589,-5.5568,-4.6437,3.77,-1.86,-3.4,
1999-01-15 09:31:18.383800,6.8781,-5.5838,-4.74,4.11,-1.03,-1.54,
1999-01-15 09:31:18.453000,6.9793,-5.5688,-4.825,4.59,-1.27,-1.23,
1999-01-15 09:31:18.522200,6.9116,-5.4378,-4.7304,3.86,-1.5,-0.03,
1999-01-15 09:31:18.591500,6.7806,-5.4814,-4.7651,3.4,-1.31,-0.94,
1999-01-15 09:31:18.660700,6.9134,-5.5185,-4.7221,3.17,-0.71,-0.37,
1999-01-15 09:31:18.729900,6.8967,-5.5084,-4.7442,2.26,-1.35,-0.27,
1999-01-15 09:31:18.799100,7.0056,-5.5257,-5.0943,4.35,-2.61,0.77,
1999-01-15 09:31:18.868300,6.716,-5.251,-5.1032,8.0,-6.82,-0.88,
1999-01-15 09:31:18.937500,6.8775,-5.2852,-5.2205,13.0,-10.3,-3.64,
1999-01-15 09:31:19.006700,6.5795,-5.202,-4.9818,16.96,-14.0,-7.18,
1999-01-15 09:31:19.076000,6.777,-5.5108,-5.0326,20.51,-16.16,-10.63,
1999-01-15 09:31:19.145200,6.8404,-5.7477,-4.9153,23.37,-18.17,-11.3,
1999-01-15 09:31:19.214400,6.6094,-5.6759,-4.7352,25.16,-18.38,-10.92,
1999-01-15 09:31:19.283600,6.7064,-5.6867,-4.6844,23.68,-16.63,-11.55,
1999-01-15 09:31:19.352800,6.5891,-5.8453,-4.6628,19.23,-15.33,-10.5,
1999-01-15 09:31:19.422000,6.698,-5.9811,-4.8238,16.19,-12.22,-7.91,
1999-01-15 09:31:19.491200,6.3276,-5.8142,-4.6365,13.14,-9.29,-5.84,
1999-01-15 09:31:19.560400,6.7339,-5.8925,-4.6945,10.03,-6.18,-4.77,
1999-01-15 09:31:19.629700,6.4754,-5.8955,-4.7418,6.02,-3.19,-2.19,
1999-01-15 09:31:19.698900,6.5771,-5.8333,-4.8268,3.91,-1.07,-1.05,
1999-01-15 09:31:19.768100,6.6154,-5.7399,-4.8112,2.42,0.94,-0.15,
1999-01-15 09:31:19.837300,6.5424,-5.7082,-4.8525,0.59,1.1,0.09,
1999-01-15 09:31:19.906500,6.6687,-5.7549,-4.892,0.5,2.89,0.25,
1999-01-15 09:31:19.975700,6.537,-5.8614,-4.9554,-0.66,2.17,0.06,
1999-01-15 09:31:20.044900,6.5777,-5.7729,-4.7789,-1.29,3.44,0.85,
1999-01-15 09:31:20.114200,6.5388,-5.7531,-4.8543,-1.65,4.07,1.03,
1999-01-15 09:31:20.183400,6.7543,-5.856,-4.9704,-1.75,3.98,1.61,
1999-01-15 09:31:20.252600,6.4455,-5.7489,-4.8717,-1.55,3.79,1.76,
1999-01-15 09:31:20.321800,6.7112,-5.7627,-4.962,-0.68,3.9,1.81,
1999-01-15 09:31:20.391000,6.4724,-5.6562,-4.9034,-0.46,3.74,2.11,
1999-01-15 09:31:20.460200,6.7279,-5.713,-4.8076,-0.3,2.9,0.88,
1999-01-15 09:31:20.529400,6.5334,-5.7794,-4.8651,0.35,3.42,1.33,
1999-01-15 09:31:20.598600,6.6238,-5.8339,-4.9596,0.46,2.8,1.01,
1999-01-15 09:31:20.667900,6.4628,-5.7094,-4.8818,1.57,3.6,0.25,
1999-01-15 09:31:20.737100,6.5879,-5.7411,-4.8375,0.39,2.97,-0.86,
1999-01-15 09:31:20.806300,6.6011,-5.7328,-4.6736,-1.56,4.55,-0.9,
1999-01-15 09:31:20.875500,6.5472,-5.8285,-4.8519,-3.31,6.15,-0.13,
1999-01-15 09:31:20.944700,6.3779,-5.8955,-4.892,-2.71,7.64,-0.56,
1999-01-15 09:31:21.013900,6.6477,-5.6819,-4.5174,-2.77,9.21,-1.76,
1999-01-15 09:31:21.083100,6.6603,-5.3737,-4.4324,-7.68,11.73,-0.9,
1999-01-15 09:31:21.152400,6.7213,-5.4024,-4.7568,-9.47,16.3,-3.05,
1999-01-15 09:31:21.221600,6.6429,-5.3336,-4.4659,-10.54,19.2,-4.76,
1999-01-15 09:31:21.290800,7.0696,-5.5724,-4.6161,-14.16,21.86,-5.33,
1999-01-15 09:31:21.360000,7.0008,-5.78,-4.5336,-17.47,24.56,-3.55,
1999-01-15 09:31:21.429200,7.3269,-5.9243,-4.6514,-22.46,23.08,1.87,
1999-01-15 09:31:21.498400,7.4125,-5.8285,-5.2361,-26.47,19.9,8.74,
1999-01-15 09:31:21.567600,7.6477,-5.4144,-5.1613,-27.06,12.38,18.09,
1999-01-15 09:31:21.636800,6.8596,-4.7592,-4.6891,-20.75,9.28,20.46,
1999-01-15 09:31:21.706100,7.3419,-4.8124,-4.5569,-14.95,3.6,16.23,
1999-01-15 09:31:21.775300,7.4975,-4.7364,-4.1374,-7.75,5.85,11.37,
1999-01-15 09:31:21.844500,7.2126,-4.5371,-3.8346,-8.03,7.45,3.26,
1999-01-15 09:31:21.913700,7.306,-4.8962,-4.6269,-8.44,8.08,-0.56,
1999-01-15 09:31:21.982900,6.8219,-4.8735,-4.1769,-2.13,10.92,-8.35,
1999-01-15 09:31:22.052100,6.865,-4.9225,-3.9693,-1.63,8.72,-18.93,
1999-01-15 09:31:22.121300,7.9176,-5.78,-4.5958,3.2,3.55,-34.32,
1999-01-15 09:31:22.190600,7.4023,-5.2367,-4.9309,5.94,-15.56,-43.02,
1999-01-15 09:31:22.259800,6.9745,-4.3564,-4.129,17.74,-11.65,-51.64,
1999-01-15 09:31:22.329000,7.7668,-4.156,-4.0967,11.52,-21.22,-49.17,
1999-01-15 09:31:22.398200,8.0618,-4.281,-4.5689,5.14,-18.42,-41.55,
1999-01-15 09:31:22.467400,7.902,-3.983,-4.2649,-1.16,-18.25,-26.74,
1999-01-15 09:31:22.536600,8.6351,-4.211,-5.3983,1.96,-28.19,-17.93,
1999-01-15 09:31:22.605800,8.7272,-2.9885,-5.4527,13.43,-29.21,-4.8,
1999-01-15 09:31:22.675000,8.3472,-2.1375,-6.1834,22.58,-32.68,-22.0,
1999-01-15 09:31:22.744300,10.2927,-1.1041,-5.4533,20.14,-6.97,-40.47,
1999-01-15 09:31:22.813500,8.3777,-1.0646,-5.7573,-5.08,4.81,-7.08,
1999-01-15 09:31:22.882700,7.0505,-1.7773,-8.0085,-14.07,7.37,11.28,
1999-01-15 09:31:22.951900,5.6119,-0.8378,-7.2001,-9.63,13.94,15.65,
1999-01-15 09:31:23.021100,5.6179,-1.2614,-7.0247,-13.41,8.97,-0.3,
1999-01-15 09:31:23.090300,6.7896,-2.0184,-7.3215,-13.48,-1.95,-4.62,
1999-01-15 09:31:23.159500,7.5023,-2.3966,-6.9272,-0.1,-0.04,-5.85,
1999-01-15 09:31:23.228800,8.2934,-2.4607,-6.7094,13.66,1.12,-0.49,
1999-01-15 09:31:23.298000,7.9134,-1.5666,-5.9536,20.62,8.04,8.91,
1999-01-15 09:31:23.367200,8.0468,-1.9939,-5.9632,18.72,7.09,12.14,
1999-01-15 09:31:23.436400,8.4376,-2.9699,-5.5024,7.33,-7.06,17.42,
1999-01-15 09:31:23.505600,8.1462,-3.5893,-5.9524,5.92,-14.43,22.9,
1999-01-15 09:31:23.574800,8.5411,-3.2117,-7.3353,13.74,-40.43,41.78,
1999-01-15 09:31:23.644000,7.3203,-3.3786,-7.6638,28.56,14.61,35.04,
1999-01-15 09:31:23.713200,6.1702,-2.9944,-6.3946,28.33,25.32,37.63,
1999-01-15 09:31:23.782500,6.0972,-3.4474,-5.8489,22.65,27.33,29.16,
1999-01-15 09:31:23.851700,5.959,-3.8843,-5.1242,13.9,14.14,24.96,
1999-01-15 09:31:23.920900,6.4945,-4.1159,-4.3193,-5.6,11.1,15.46,
1999-01-15 09:31:23.990100,6.8165,-5.3618,-5.7489,-5.03,12.13,14.96,
1999-01-15 09:31:24.059300,6.5741,-4.8627,-4.9471,-9.21,14.16,23.56,
1999-01-15 09:31:24.128500,6.7417,-5.1086,-5.6454,9.4,50.74,8.5,
1999-01-15 09:31:24.197700,6.1714,-5.4366,-4.5557,23.89,62.18,19.85,
1999-01-15 09:31:24.267000,6.6304,-6.7872,-5.555,64.71,106.6,5.32,
1999-01-15 09:31:24.336200,6.9822,-5.4144,-1.4398,29.79,61.57,17.68,
1999-01-15 09:31:24.405400,6.9009,-6.2181,-2.4224,8.21,29.17,14.35,
1999-01-15 09:31:24.474600,7.358,-6.6848,-2.5941,27.75,67.07,-9.41,
1999-01-15 09:31:24.543800,7.1995,-6.108,-0.082,18.32,53.31,-3.32,
1999-01-15 09:31:24.613000,6.8123,-5.3971,0.4739,-7.56,21.91,-3.59,
1999-01-15 09:31:24.682200,7.9008,-5.8812,-1.4039,-44.24,-31.83,19.24,
1999-01-15 09:31:24.751400,7.607,-5.2762,-1.5624,-97.18,-57.02,41.52,
1999-01-15 09:31:24.820700,6.4766,-8.1342,-5.1487,-84.8,-21.32,31.69,
1999-01-15 09:31:24.889900,6.683,-8.5842,-5.5407,-7.99,30.47,5.93,
1999-01-15 09:31:24.959100,6.5179,-6.4616,-2.2231,34.11,62.15,-7.07,
1999-01-15 09:31:25.028300,7.0445,-6.7937,-1.7121,61.82,67.18,-3.58,
1999-01-15 09:31:25.097500,6.4922,-5.6113,0.8001,59.82,35.6,-1.22,
1999-01-15 09:31:25.166700,7.75,-5.1092,0.9012,36.03,28.52,-7.66,
1999-01-15 09:31:25.235900,6.8596,-5.7465,0.9293,-3.14,-0.09,-1.86,
1999-01-15 09:31:25.305200,7.7644,-5.9368,0.5051,-18.52,-3.03,-6.25,
1999-01-15 09:31:25.374400,6.9649,-6.6017,-0.2681,-19.89,4.56,-5.27,
1999-01-15 09:31:25.443600,6.8141,-6.6136,-0.7486,-19.45,-9.42,-4.66,
1999-01-15 09:31:25.512800,8.1276,-6.911,-1.4691,-12.84,-9.53,-3.07,
1999-01-15 09:31:25.582000,7.1791,-6.251,-0.9981,-15.57,-6.23,1.0,
1999-01-15 09:31:25.651200,7.3551,-6.1163,-1.4529,-22.16,-12.49,0.12,
1999-01-15 09:31:25.720400,7.2126,-5.9979,-1.2962,-34.18,-16.9,-1.21,
1999-01-15 09:31:25.789600,8.0271,-6.4993,-2.5067,-40.22,-21.45,2.9,
1999-01-15 09:31:25.858900,7.2964,-5.9171,-2.1615,-44.42,-3.8,5.11,
1999-01-15 09:31:25.928100,7.9182,-6.2588,-3.3972,-58.72,-18.28,17.61,
1999-01-15 09:31:25.997300,7.1803,-5.962,-3.536,-49.9,1.05,19.15,
1999-01-15 09:31:26.066500,6.5119,-5.5592,-4.0327,-60.96,-15.81,22.73,
1999-01-15 09:31:26.135700,6.8123,-5.5664,-4.749,-54.81,-13.45,10.5,
1999-01-15 09:31:26.204900,6.7776,-5.9213,-6.2833,-34.83,-24.14,15.9,
1999-01-15 09:31:26.274100,6.5891,-5.3175,-5.6209,-10.03,-3.16,4.65,
1999-01-15 09:31:26.343400,6.2671,-5.3827,-5.588,1.0,3.06,1.33,
1999-01-15 09:31:26.412600,6.2827,-5.5981,-5.2038,3.55,-3.4,1.86,
1999-01-15 09:31:26.481800,6.7106,-5.5425,-4.9836,-1.37,-0.91,3.12,
1999-01-15 09:31:26.551000,6.8093,-5.4725,-4.3588,-18.18,-4.8,19.78,
1999-01-15 09:31:26.620200,5.7118,-5.8979,-5.351,-33.06,-0.79,29.59,
1999-01-15 09:31:26.689400,5.7017,-5.8961,-6.029,-43.07,-9.28,35.07,
1999-01-15 09:31:26.758600,5.8614,-6.5071,-7.169,-22.32,10.33,33.43,
1999-01-15 09:31:26.827800,4.9477,-6.005,-5.8896,-5.91,13.92,29.02,
1999-01-15 09:31:26.897100,4.7945,-5.9739,-5.2935,-8.68,0.34,17.03,
1999-01-15 09:31:26.966300,5.8836,-6.0427,-6.4922,-10.72,-13.68,-2.42,
1999-01-15 09:31:27.035500,4.9327,-6.0032,-6.6424,-11.62,-33.46,-6.98,
1999-01-15 09:31:27.104700,5.1858,-5.6143,-6.549,-0.12,-26.59,-18.57,
1999-01-15 09:31:27.173900,4.7819,-5.9213,-6.561,2.43,-27.05,-21.24,
1999-01-15 09:31:27.243100,4.6514,-6.1313,-6.2306,2.96,-24.98,-19.47,
1999-01-15 09:31:27.312300,4.3355,-6.3336,-6.2582,2.94,-25.49,-16.21,
1999-01-15 09:31:27.381600,4.8411,-6.3186,-6.2947,2.95,-22.09,-17.79,
1999-01-15 09:31:27.450800,5.2499,-5.6514,-6.6292,12.81,-10.95,-20.43,
1999-01-15 09:31:27.520000,4.9644,-4.7813,-7.0247,31.27,0.66,-18.72,
1999-01-15 09:31:27.589200,4.4378,-4.1937,-7.1636,39.49,16.83,-25.13,
1999-01-15 09:31:27.658400,7.1211,-5.6304,-8.06,24.89,14.32,-39.47,
1999-01-15 09:31:27.727600,4.8884,-4.8513,-7.139,24.18,26.86,-21.76,
1999-01-15 09:31:27.796800,4.1027,-5.0189,-7.1672,4.54,9.33,-16.01,
1999-01-15 09:31:27.866000,5.6604,-4.9201,-7.2384,-3.58,7.56,-13.74,
1999-01-15 09:31:27.935300,5.9721,-5.2876,-7.1636,-9.84,9.7,-0.53,
1999-01-15 09:31:28.004500,5.6053,-5.1338,-6.7812,-11.34,8.78,11.2,
1999-01-15 09:31:28.073700,5.7507,-5.059,-6.4628,-16.87,10.32,20.86,
1999-01-15 09:31:28.142900,5.7914,-5.4378,-7.464,-16.84,16.98,30.98,
1999-01-15 09:31:28.212100,5.6334,-5.0368,-6.5646,-5.93,23.14,29.95,
1999-01-15 09:31:28.281300,6.0356,-5.2636,-6.4114,8.21,28.46,30.11,
1999-01-15 09:31:28.350500,5.4222,-5.1068,-5.4491,10.42,24.01,22.18,
1999-01-15 09:31:28.419800,6.3216,-5.725,-5.5437,8.36,24.26,17.31,
1999-01-15 09:31:28.489000,6.163,-5.6789,-5.3258,4.03,19.31,19.5,
1999-01-15 09:31:28.558200,5.6759,-5.4838,-5.0973,-9.55,24.7,29.28,
1999-01-15 09:31:28.627400,6.3994,-5.8076,-5.3456,-17.33,29.35,32.7,
1999-01-15 09:31:28.696600,4.7843,-6.7112,-5.056,-10.95,37.8,32.94,
1999-01-15 09:31:28.765800,6.2133,-7.461,-5.0937,-12.05,49.45,33.85,
1999-01-15 09:31:28.835000,4.6419,-7.7368,-5.032,-1.44,41.82,29.65,
1999-01-15 09:31:28.904200,4.8274,-7.4053,-3.8962,8.51,47.73,21.98,
1999-01-15 09:31:28.973500,5.5042,-8.3903,-3.8484,10.12,37.2,9.37,
1999-01-15 09:31:29.042700,5.0051,-7.4388,-3.6712,-0.07,38.69,16.88,
1999-01-15 09:31:29.111900,5.2516,-7.1031,-3.0082,-20.16,34.34,19.03,
1999-01-15 09:31:29.181100,4.9901,-8.0432,-4.4324,-21.46,26.87,19.71,
1999-01-15 09:31:29.250300,5.3061,-7.0002,-4.2978,-22.52,25.5,14.46,
1999-01-15 09:31:29.319500,4.9465,-7.8751,-3.983,-15.31,18.98,6.58,
1999-01-15 09:31:29.388700,5.2475,-8.0522,-2.6863,-9.96,23.3,4.2,
1999-01-15 09:31:29.458000,5.2816,-7.7231,-1.7049,-19.35,30.36,8.14,
1999-01-15 09:31:29.527200,5.0889,-7.9158,-2.4607,-21.52,44.9,11.94,
1999-01-15 09:31:29.596400,4.9584,-7.2288,-2.2961,-33.25,36.97,8.9,
1999-01-15 09:31:29.665600,5.7082,-8.1043,-4.6532,-20.92,37.1,3.89,
1999-01-15 09:31:29.734800,6.5107,-6.768,-3.5007,-3.88,35.09,-2.11,
1999-01-15 09:31:29.804000,5.2666,-6.5287,-4.0985,7.25,19.4,-19.05,
1999-01-15 09:31:29.873200,7.8577,-5.4473,-3.7873,-3.52,11.85,-22.84,
1999-01-15 09:31:29.942400,6.1846,-6.5891,-6.1852,-2.93,-12.77,-32.06,
1999-01-15 09:31:30.011700,4.0806,-4.7017,-6.0709,6.06,-68.85,-80.84,
1999-01-15 09:31:30.080900,6.3288,-2.6653,-7.011,9.79,-113.69,-141.02,
1999-01-15 09:31:30.150100,8.2874,-1.0083,-5.5706,-3.39,-130.02,-116.24,
1999-01-15 09:31:30.219300,9.0318,-2.578,-7.595,-23.43,-113.99,-51.23,
1999-01-15 09:31:30.288500,7.1193,-3.253,-7.9295,-22.39,-46.53,-24.81,
1999-01-15 09:31:30.357700,6.5616,-2.7874,-7.6225,-16.83,-2.62,-12.38,
1999-01-15 09:31:30.426900,6.0691,-2.8269,-8.2126,-4.93,4.94,-4.75,
1999-01-15 09:31:30.496200,5.3701,-2.5397,-8.3586,8.11,9.09,0.02,
1999-01-15 09:31:30.565400,5.5048,-2.3182,-8.4932,17.16,0.65,-10.79,
1999-01-15 09:31:30.634600,5.3414,-2.1148,-8.9313,31.48,-3.64,-3.41,
1999-01-15 09:31:30.703800,4.7759,-1.4535,-6.9541,35.6,-17.16,7.85,
1999-01-15 09:31:30.773000,6.3228,-2.9903,-8.3394,31.47,-14.19,-33.8,
1999-01-15 09:31:30.842200,6.2893,-2.4463,-6.8781,27.13,-9.79,-51.68,
1999-01-15 09:31:30.911400,6.5652,-3.244,-7.3078,15.89,-39.46,-53.24,
1999-01-15 09:31:30.980600,6.4132,-2.9909,-8.0857,13.76,-48.4,-60.55,
1999-01-15 09:31:31.049900,5.3779,-1.6235,-7.2958,16.9,-80.04,-73.69,
1999-01-15 09:31:31.119100,5.1942,-1.3315,-9.1892,11.12,-93.66,-81.79,
1999-01-15 09:31:31.188300,4.4647,-0.7624,-8.5309,26.83,-62.74,-72.79,
1999-01-15 09:31:31.257500,4.7586,-1.1448,-9.7888,16.12,-54.43,-80.02,
1999-01-15 09:31:31.326700,3.6473,0.1843,-9.7762,33.2,-42.74,-77.8,
1999-01-15 09:31:31.395900,3.6964,-1.3249,-10.5093,48.84,-31.82,-85.61,
1999-01-15 09:31:31.465100,0.8695,-2.1543,-11.7007,74.64,-65.43,-73.38,
1999-01-15 09:31:31.534400,1.9807,-2.2117,-10.4716,-0.79,-37.84,-65.84,
1999-01-15 09:31:31.603600,-0.3854,-2.3296,-8.96,71.31,-60.84,-38.3,
1999-01-15 09:31:31.672800,0.9329,-2.6934,-8.7523,55.77,-45.51,-12.33,
1999-01-15 09:31:31.742000,0.2687,-3.9567,-8.9355,49.92,-40.99,-3.21,
1999-01-15 09:31:31.811200,0.5356,-4.5952,-9.4734,15.44,-24.85,2.73,
1999-01-15 09:31:31.880400,-0.4344,-5.105,-9.5488,26.88,-19.78,5.04,
1999-01-15 09:31:31.949600,-0.6894,-4.4689,-9.7888,-6.85,-46.86,16.34,
1999-01-15 09:31:32.018800,-1.9927,-3.5366,-9.0402,-57.01,-51.04,-4.34,
1999-01-15 09:31:32.088100,-2.9926,-2.0304,-9.0635,-62.88,-52.59,-11.31,
1999-01-15 09:31:32.157300,-2.049,-1.3524,-9.3663,-40.59,-47.28,-38.7,
1999-01-15 09:31:32.226500,-2.3003,-2.332,-10.0359,-34.2,-27.72,-19.97,
1999-01-15 09:31:32.295700,-1.4757,-2.7551,-10.9234,-24.0,31.76,-11.83,
1999-01-15 09:31:32.364900,-0.3573,-2.2494,-11.2519,-35.26,95.58,-19.86,
1999-01-15 09:31:32.434100,0.2388,-1.2626,-9.772,-20.87,79.26,-10.01,
1999-01-15 09:31:32.503300,0.7037,-0.7881,-9.6212,-6.31,52.44,-29.17,
1999-01-15 09:31:32.572600,1.5313,-1.0406,-8.489,13.83,24.4,-82.3,
1999-01-15 09:31:32.641800,0.1586,-1.3482,-11.2022,16.57,-74.52,-92.77,
1999-01-15 09:31:32.711000,-0.3088,-1.1621,-10.3794,9.61,0.66,-42.53,
1999-01-15 09:31:32.780200,-0.0802,-1.2237,-10.1377,0.55,12.83,-2.91,
1999-01-15 09:31:32.849400,0.1897,-1.4559,-9.9037,-1.58,26.69,12.71,
1999-01-15 09:31:32.918600,0.5924,-1.3339,-9.7008,-3.47,32.59,10.45,
1999-01-15 09:31:32.987800,0.8892,-1.1968,-9.5028,-9.07,42.06,0.42,
